#
# Results on Friday November 30 2018 20:19:18 UTC.
# USER AGENT: Mozilla/5.0 (Windows NT 6.2; Win64; x64) AppleWebKit/537.36 (KHTML, like Gecko) Chrome/70.0.3538.110 Safari/537.36
# Design number was non-random = 0
#
# Columns below this comment are as follows:
# 1. Time results were received.
# 2. MD5 hash of participant's IP address.
# 3. Controller name.
# 4. Item number.
# 5. Element number.
# 6. Type.
# 7. Group.
# 8. Field name.
# 9. Field value.
1543609159,8ad8dad00ef777c295e752ca049bff6a,Form,3,0,consent,NULL,,yes
1543609159,8ad8dad00ef777c295e752ca049bff6a,Form,3,0,consent,NULL,_REACTION_TIME_,8202
1543609159,8ad8dad00ef777c295e752ca049bff6a,Form,4,0,instructions,NULL,_REACTION_TIME_,1943
1543609159,8ad8dad00ef777c295e752ca049bff6a,Form,5,0,story,9,_REACTION_TIME_,15721
# Columns below this comment are as follows:
# 1. Time results were received.
# 2. MD5 hash of participant's IP address.
# 3. Controller name.
# 4. Item number.
# 5. Element number.
# 6. Type.
# 7. Group.
# 8. Question (NULL if none).
# 9. Answer.
# 10. Whether or not answer was correct (NULL if N/A).
# 11. Time taken to answer.
1543609159,8ad8dad00ef777c295e752ca049bff6a,Question,5,1,story,9,What's in the box%2C according to Mary?,a bomb,1,3650
1543609159,8ad8dad00ef777c295e752ca049bff6a,Question,5,2,story,9,What was really in the box?,a pillow,0,1618
1543609159,8ad8dad00ef777c295e752ca049bff6a,Question,5,3,story,9,Was Mary right about that?,no,1,2849
1543609159,8ad8dad00ef777c295e752ca049bff6a,Question,7,0,politics,NULL,How worried are you about taxpayer money being wasted?,very worried,NULL,7757
1543609159,8ad8dad00ef777c295e752ca049bff6a,Question,6,0,politics,NULL,How worried are you about bombs being sent to government officials?,a little worried,NULL,2206
# Columns below this comment are as follows:
# 1. Time results were received.
# 2. MD5 hash of participant's IP address.
# 3. Controller name.
# 4. Item number.
# 5. Element number.
# 6. Type.
# 7. Group.
# 8. Field name.
# 9. Field value.
1543609159,8ad8dad00ef777c295e752ca049bff6a,Form,8,0,subj_info,NULL,year,1994
1543609159,8ad8dad00ef777c295e752ca049bff6a,Form,8,0,subj_info,NULL,language,English
1543609159,8ad8dad00ef777c295e752ca049bff6a,Form,8,0,subj_info,NULL,idturk,A1320NEHBNZ8FM
1543609159,8ad8dad00ef777c295e752ca049bff6a,Form,8,0,subj_info,NULL,comment,
1543609159,8ad8dad00ef777c295e752ca049bff6a,Form,8,0,subj_info,NULL,sex,male
1543609159,8ad8dad00ef777c295e752ca049bff6a,Form,8,0,subj_info,NULL,politics,democrat
1543609159,8ad8dad00ef777c295e752ca049bff6a,Form,8,0,subj_info,NULL,_REACTION_TIME_,16782
#
# Results on Friday November 30 2018 20:19:21 UTC.
# USER AGENT: Mozilla/5.0 (Windows NT 10.0; Win64; x64) AppleWebKit/537.36 (KHTML, like Gecko) Chrome/68.0.3440.106 Safari/537.36
# Design number was non-random = 0
#
# Columns below this comment are as follows:
# 1. Time results were received.
# 2. MD5 hash of participant's IP address.
# 3. Controller name.
# 4. Item number.
# 5. Element number.
# 6. Type.
# 7. Group.
# 8. Field name.
# 9. Field value.
1543609162,0452b4570ccaa1c165e6f89ff42c28d3,Form,3,0,consent,NULL,,yes
1543609162,0452b4570ccaa1c165e6f89ff42c28d3,Form,3,0,consent,NULL,_REACTION_TIME_,4290
1543609162,0452b4570ccaa1c165e6f89ff42c28d3,Form,4,0,instructions,NULL,_REACTION_TIME_,3067
1543609162,0452b4570ccaa1c165e6f89ff42c28d3,Form,5,0,story,9,_REACTION_TIME_,14361
# Columns below this comment are as follows:
# 1. Time results were received.
# 2. MD5 hash of participant's IP address.
# 3. Controller name.
# 4. Item number.
# 5. Element number.
# 6. Type.
# 7. Group.
# 8. Question (NULL if none).
# 9. Answer.
# 10. Whether or not answer was correct (NULL if N/A).
# 11. Time taken to answer.
1543609162,0452b4570ccaa1c165e6f89ff42c28d3,Question,5,1,story,9,What's in the box%2C according to Mary?,a bomb,1,3213
1543609162,0452b4570ccaa1c165e6f89ff42c28d3,Question,5,2,story,9,What was really in the box?,a pillow,0,1597
1543609162,0452b4570ccaa1c165e6f89ff42c28d3,Question,5,3,story,9,Was Mary right about that?,no,1,2702
1543609162,0452b4570ccaa1c165e6f89ff42c28d3,Question,6,0,politics,NULL,How worried are you about bombs being sent to government officials?,not at all worried,NULL,3019
1543609162,0452b4570ccaa1c165e6f89ff42c28d3,Question,7,0,politics,NULL,How worried are you about taxpayer money being wasted?,not at all worried,NULL,3739
# Columns below this comment are as follows:
# 1. Time results were received.
# 2. MD5 hash of participant's IP address.
# 3. Controller name.
# 4. Item number.
# 5. Element number.
# 6. Type.
# 7. Group.
# 8. Field name.
# 9. Field value.
1543609162,0452b4570ccaa1c165e6f89ff42c28d3,Form,8,0,subj_info,NULL,year,1993
1543609162,0452b4570ccaa1c165e6f89ff42c28d3,Form,8,0,subj_info,NULL,language,English
1543609162,0452b4570ccaa1c165e6f89ff42c28d3,Form,8,0,subj_info,NULL,idturk,A3S0P0MF1B5VW3
1543609162,0452b4570ccaa1c165e6f89ff42c28d3,Form,8,0,subj_info,NULL,comment,
1543609162,0452b4570ccaa1c165e6f89ff42c28d3,Form,8,0,subj_info,NULL,sex,male
1543609162,0452b4570ccaa1c165e6f89ff42c28d3,Form,8,0,subj_info,NULL,politics,democrat
1543609162,0452b4570ccaa1c165e6f89ff42c28d3,Form,8,0,subj_info,NULL,_REACTION_TIME_,20491
#
# Results on Friday November 30 2018 20:19:24 UTC.
# USER AGENT: Mozilla/5.0 (Windows NT 6.3; Win64; x64; rv:62.0) Gecko/20100101 Firefox/62.0
# Design number was non-random = 0
#
# Columns below this comment are as follows:
# 1. Time results were received.
# 2. MD5 hash of participant's IP address.
# 3. Controller name.
# 4. Item number.
# 5. Element number.
# 6. Type.
# 7. Group.
# 8. Field name.
# 9. Field value.
1543609165,a23448a92feb8d0cbdb06e2f7217a139,Form,3,0,consent,NULL,,yes
1543609165,a23448a92feb8d0cbdb06e2f7217a139,Form,3,0,consent,NULL,_REACTION_TIME_,6643
1543609165,a23448a92feb8d0cbdb06e2f7217a139,Form,4,0,instructions,NULL,_REACTION_TIME_,2779
1543609165,a23448a92feb8d0cbdb06e2f7217a139,Form,5,0,story,9,_REACTION_TIME_,25289
# Columns below this comment are as follows:
# 1. Time results were received.
# 2. MD5 hash of participant's IP address.
# 3. Controller name.
# 4. Item number.
# 5. Element number.
# 6. Type.
# 7. Group.
# 8. Question (NULL if none).
# 9. Answer.
# 10. Whether or not answer was correct (NULL if N/A).
# 11. Time taken to answer.
1543609165,a23448a92feb8d0cbdb06e2f7217a139,Question,5,1,story,9,What's in the box%2C according to Mary?,a bomb,1,3892
1543609165,a23448a92feb8d0cbdb06e2f7217a139,Question,5,2,story,9,What was really in the box?,a pillow,0,1745
1543609165,a23448a92feb8d0cbdb06e2f7217a139,Question,5,3,story,9,Was Mary right about that?,no,1,2462
1543609165,a23448a92feb8d0cbdb06e2f7217a139,Question,7,0,politics,NULL,How worried are you about taxpayer money being wasted?,very worried,NULL,3527
1543609165,a23448a92feb8d0cbdb06e2f7217a139,Question,6,0,politics,NULL,How worried are you about bombs being sent to government officials?,a little worried,NULL,3183
# Columns below this comment are as follows:
# 1. Time results were received.
# 2. MD5 hash of participant's IP address.
# 3. Controller name.
# 4. Item number.
# 5. Element number.
# 6. Type.
# 7. Group.
# 8. Field name.
# 9. Field value.
1543609165,a23448a92feb8d0cbdb06e2f7217a139,Form,8,0,subj_info,NULL,year,1961
1543609165,a23448a92feb8d0cbdb06e2f7217a139,Form,8,0,subj_info,NULL,language,English
1543609165,a23448a92feb8d0cbdb06e2f7217a139,Form,8,0,subj_info,NULL,idturk,A1Y25W1Y7KDE5
1543609165,a23448a92feb8d0cbdb06e2f7217a139,Form,8,0,subj_info,NULL,comment,
1543609165,a23448a92feb8d0cbdb06e2f7217a139,Form,8,0,subj_info,NULL,sex,male
1543609165,a23448a92feb8d0cbdb06e2f7217a139,Form,8,0,subj_info,NULL,politics,democrat
1543609165,a23448a92feb8d0cbdb06e2f7217a139,Form,8,0,subj_info,NULL,_REACTION_TIME_,28083
#
# Results on Friday November 30 2018 20:20:17 UTC.
# USER AGENT: Mozilla/5.0 (Windows NT 10.0; Win64; x64) AppleWebKit/537.36 (KHTML, like Gecko) Chrome/70.0.3538.102 Safari/537.36
# Design number was non-random = 0
#
# Columns below this comment are as follows:
# 1. Time results were received.
# 2. MD5 hash of participant's IP address.
# 3. Controller name.
# 4. Item number.
# 5. Element number.
# 6. Type.
# 7. Group.
# 8. Field name.
# 9. Field value.
1543609217,e53cc8e899d6ff66058f16573ca30bc0,Form,3,0,consent,NULL,,yes
1543609217,e53cc8e899d6ff66058f16573ca30bc0,Form,3,0,consent,NULL,_REACTION_TIME_,11246
1543609217,e53cc8e899d6ff66058f16573ca30bc0,Form,4,0,instructions,NULL,_REACTION_TIME_,3065
1543609217,e53cc8e899d6ff66058f16573ca30bc0,Form,5,0,story,9,_REACTION_TIME_,20453
# Columns below this comment are as follows:
# 1. Time results were received.
# 2. MD5 hash of participant's IP address.
# 3. Controller name.
# 4. Item number.
# 5. Element number.
# 6. Type.
# 7. Group.
# 8. Question (NULL if none).
# 9. Answer.
# 10. Whether or not answer was correct (NULL if N/A).
# 11. Time taken to answer.
1543609217,e53cc8e899d6ff66058f16573ca30bc0,Question,5,1,story,9,What's in the box%2C according to Mary?,a bomb,1,3036
1543609217,e53cc8e899d6ff66058f16573ca30bc0,Question,5,2,story,9,What was really in the box?,a pillow,0,1396
1543609217,e53cc8e899d6ff66058f16573ca30bc0,Question,5,3,story,9,Was Mary right about that?,no,1,2823
1543609217,e53cc8e899d6ff66058f16573ca30bc0,Question,6,0,politics,NULL,How worried are you about bombs being sent to government officials?,a little worried,NULL,5841
1543609217,e53cc8e899d6ff66058f16573ca30bc0,Question,7,0,politics,NULL,How worried are you about taxpayer money being wasted?,very worried,NULL,3710
# Columns below this comment are as follows:
# 1. Time results were received.
# 2. MD5 hash of participant's IP address.
# 3. Controller name.
# 4. Item number.
# 5. Element number.
# 6. Type.
# 7. Group.
# 8. Field name.
# 9. Field value.
1543609217,e53cc8e899d6ff66058f16573ca30bc0,Form,8,0,subj_info,NULL,year,1969
1543609217,e53cc8e899d6ff66058f16573ca30bc0,Form,8,0,subj_info,NULL,language,English
1543609217,e53cc8e899d6ff66058f16573ca30bc0,Form,8,0,subj_info,NULL,idturk,A21Y7K669KM1PR
1543609217,e53cc8e899d6ff66058f16573ca30bc0,Form,8,0,subj_info,NULL,comment,
1543609217,e53cc8e899d6ff66058f16573ca30bc0,Form,8,0,subj_info,NULL,sex,female
1543609217,e53cc8e899d6ff66058f16573ca30bc0,Form,8,0,subj_info,NULL,politics,republican
1543609217,e53cc8e899d6ff66058f16573ca30bc0,Form,8,0,subj_info,NULL,_REACTION_TIME_,23147
#
# Results on Friday November 30 2018 20:20:41 UTC.
# USER AGENT: Mozilla/5.0 (Windows NT 6.1; Win64; x64) AppleWebKit/537.36 (KHTML, like Gecko) Chrome/67.0.3396.62 Safari/537.36
# Design number was non-random = 0
#
# Columns below this comment are as follows:
# 1. Time results were received.
# 2. MD5 hash of participant's IP address.
# 3. Controller name.
# 4. Item number.
# 5. Element number.
# 6. Type.
# 7. Group.
# 8. Field name.
# 9. Field value.
1543609241,a8e023788506f3a2a668921a0b01c046,Form,3,0,consent,NULL,,yes
1543609241,a8e023788506f3a2a668921a0b01c046,Form,3,0,consent,NULL,_REACTION_TIME_,3562
1543609241,a8e023788506f3a2a668921a0b01c046,Form,4,0,instructions,NULL,_REACTION_TIME_,11379
1543609241,a8e023788506f3a2a668921a0b01c046,Form,5,0,story,9,_REACTION_TIME_,57441
# Columns below this comment are as follows:
# 1. Time results were received.
# 2. MD5 hash of participant's IP address.
# 3. Controller name.
# 4. Item number.
# 5. Element number.
# 6. Type.
# 7. Group.
# 8. Question (NULL if none).
# 9. Answer.
# 10. Whether or not answer was correct (NULL if N/A).
# 11. Time taken to answer.
1543609241,a8e023788506f3a2a668921a0b01c046,Question,5,1,story,9,What's in the box%2C according to Mary?,a bomb,1,12879
1543609241,a8e023788506f3a2a668921a0b01c046,Question,5,2,story,9,What was really in the box?,a pillow,0,1931
1543609241,a8e023788506f3a2a668921a0b01c046,Question,5,3,story,9,Was Mary right about that?,no,1,4353
1543609241,a8e023788506f3a2a668921a0b01c046,Question,7,0,politics,NULL,How worried are you about taxpayer money being wasted?,very worried,NULL,6390
1543609241,a8e023788506f3a2a668921a0b01c046,Question,6,0,politics,NULL,How worried are you about bombs being sent to government officials?,very worried,NULL,5759
# Columns below this comment are as follows:
# 1. Time results were received.
# 2. MD5 hash of participant's IP address.
# 3. Controller name.
# 4. Item number.
# 5. Element number.
# 6. Type.
# 7. Group.
# 8. Field name.
# 9. Field value.
1543609241,a8e023788506f3a2a668921a0b01c046,Form,8,0,subj_info,NULL,year,1989
1543609241,a8e023788506f3a2a668921a0b01c046,Form,8,0,subj_info,NULL,language,English
1543609241,a8e023788506f3a2a668921a0b01c046,Form,8,0,subj_info,NULL,idturk,A1N4TYRLJ26DB9
1543609241,a8e023788506f3a2a668921a0b01c046,Form,8,0,subj_info,NULL,comment,
1543609241,a8e023788506f3a2a668921a0b01c046,Form,8,0,subj_info,NULL,sex,male
1543609241,a8e023788506f3a2a668921a0b01c046,Form,8,0,subj_info,NULL,politics,republican
1543609241,a8e023788506f3a2a668921a0b01c046,Form,8,0,subj_info,NULL,_REACTION_TIME_,16890
#
# Results on Friday November 30 2018 20:20:52 UTC.
# USER AGENT: Mozilla/5.0 (Windows NT 10.0; Win64; x64) AppleWebKit/537.36 (KHTML, like Gecko) Chrome/70.0.3538.110 Safari/537.36
# Design number was non-random = 1
#
# Columns below this comment are as follows:
# 1. Time results were received.
# 2. MD5 hash of participant's IP address.
# 3. Controller name.
# 4. Item number.
# 5. Element number.
# 6. Type.
# 7. Group.
# 8. Field name.
# 9. Field value.
1543609252,efab5cac0044067ee415a3af50340eed,Form,3,0,consent,NULL,,yes
1543609252,efab5cac0044067ee415a3af50340eed,Form,3,0,consent,NULL,_REACTION_TIME_,24062
1543609252,efab5cac0044067ee415a3af50340eed,Form,4,0,instructions,NULL,_REACTION_TIME_,6041
1543609252,efab5cac0044067ee415a3af50340eed,Form,5,0,story,9,_REACTION_TIME_,27343
# Columns below this comment are as follows:
# 1. Time results were received.
# 2. MD5 hash of participant's IP address.
# 3. Controller name.
# 4. Item number.
# 5. Element number.
# 6. Type.
# 7. Group.
# 8. Question (NULL if none).
# 9. Answer.
# 10. Whether or not answer was correct (NULL if N/A).
# 11. Time taken to answer.
1543609252,efab5cac0044067ee415a3af50340eed,Question,5,1,story,9,What's in the box%2C according to Mary?,a bomb,1,5100
1543609252,efab5cac0044067ee415a3af50340eed,Question,5,2,story,9,What was really in the box?,a pillow,0,2449
1543609252,efab5cac0044067ee415a3af50340eed,Question,5,3,story,9,Was Mary right about that?,no,1,3375
1543609252,efab5cac0044067ee415a3af50340eed,Question,7,0,politics,NULL,How worried are you about taxpayer money being wasted?,a little worried,NULL,3589
1543609252,efab5cac0044067ee415a3af50340eed,Question,6,0,politics,NULL,How worried are you about bombs being sent to government officials?,very worried,NULL,4707
# Columns below this comment are as follows:
# 1. Time results were received.
# 2. MD5 hash of participant's IP address.
# 3. Controller name.
# 4. Item number.
# 5. Element number.
# 6. Type.
# 7. Group.
# 8. Field name.
# 9. Field value.
1543609252,efab5cac0044067ee415a3af50340eed,Form,8,0,subj_info,NULL,year,1981
1543609252,efab5cac0044067ee415a3af50340eed,Form,8,0,subj_info,NULL,language,English
1543609252,efab5cac0044067ee415a3af50340eed,Form,8,0,subj_info,NULL,idturk,A2FE0I7W269C1C
1543609252,efab5cac0044067ee415a3af50340eed,Form,8,0,subj_info,NULL,comment,
1543609252,efab5cac0044067ee415a3af50340eed,Form,8,0,subj_info,NULL,sex,female
1543609252,efab5cac0044067ee415a3af50340eed,Form,8,0,subj_info,NULL,politics,republican
1543609252,efab5cac0044067ee415a3af50340eed,Form,8,0,subj_info,NULL,_REACTION_TIME_,14478
#
# Results on Friday November 30 2018 20:21:19 UTC.
# USER AGENT: Mozilla/5.0 (Windows NT 6.3; Win64; x64) AppleWebKit/537.36 (KHTML, like Gecko) Chrome/70.0.3538.110 Safari/537.36
# Design number was non-random = 3
#
# Columns below this comment are as follows:
# 1. Time results were received.
# 2. MD5 hash of participant's IP address.
# 3. Controller name.
# 4. Item number.
# 5. Element number.
# 6. Type.
# 7. Group.
# 8. Field name.
# 9. Field value.
1543609279,cfa3e658f7153271bf08973165dce7b3,Form,3,0,consent,NULL,,yes
1543609279,cfa3e658f7153271bf08973165dce7b3,Form,3,0,consent,NULL,_REACTION_TIME_,17869
1543609279,cfa3e658f7153271bf08973165dce7b3,Form,4,0,instructions,NULL,_REACTION_TIME_,3006
1543609279,cfa3e658f7153271bf08973165dce7b3,Form,5,0,story,9,_REACTION_TIME_,43661
# Columns below this comment are as follows:
# 1. Time results were received.
# 2. MD5 hash of participant's IP address.
# 3. Controller name.
# 4. Item number.
# 5. Element number.
# 6. Type.
# 7. Group.
# 8. Question (NULL if none).
# 9. Answer.
# 10. Whether or not answer was correct (NULL if N/A).
# 11. Time taken to answer.
1543609279,cfa3e658f7153271bf08973165dce7b3,Question,5,1,story,9,What's in the box%2C according to Mary?,a bomb,1,4033
1543609279,cfa3e658f7153271bf08973165dce7b3,Question,5,2,story,9,What was really in the box?,a pillow,0,2039
1543609279,cfa3e658f7153271bf08973165dce7b3,Question,5,3,story,9,Was Mary right about that?,no,1,4106
1543609279,cfa3e658f7153271bf08973165dce7b3,Question,7,0,politics,NULL,How worried are you about taxpayer money being wasted?,a little worried,NULL,5505
1543609279,cfa3e658f7153271bf08973165dce7b3,Question,6,0,politics,NULL,How worried are you about bombs being sent to government officials?,very worried,NULL,2885
# Columns below this comment are as follows:
# 1. Time results were received.
# 2. MD5 hash of participant's IP address.
# 3. Controller name.
# 4. Item number.
# 5. Element number.
# 6. Type.
# 7. Group.
# 8. Field name.
# 9. Field value.
1543609279,cfa3e658f7153271bf08973165dce7b3,Form,8,0,subj_info,NULL,year,1979
1543609279,cfa3e658f7153271bf08973165dce7b3,Form,8,0,subj_info,NULL,language,English
1543609279,cfa3e658f7153271bf08973165dce7b3,Form,8,0,subj_info,NULL,idturk,A1WB6RPYK8VPLK
1543609279,cfa3e658f7153271bf08973165dce7b3,Form,8,0,subj_info,NULL,comment,
1543609279,cfa3e658f7153271bf08973165dce7b3,Form,8,0,subj_info,NULL,sex,male
1543609279,cfa3e658f7153271bf08973165dce7b3,Form,8,0,subj_info,NULL,politics,democrat
1543609279,cfa3e658f7153271bf08973165dce7b3,Form,8,0,subj_info,NULL,_REACTION_TIME_,25941
#
# Results on Friday November 30 2018 20:21:38 UTC.
# USER AGENT: Mozilla/5.0 (Windows NT 10.0; Win64; x64) AppleWebKit/537.36 (KHTML, like Gecko) Chrome/70.0.3538.110 Safari/537.36
# Design number was non-random = 5
#
# Columns below this comment are as follows:
# 1. Time results were received.
# 2. MD5 hash of participant's IP address.
# 3. Controller name.
# 4. Item number.
# 5. Element number.
# 6. Type.
# 7. Group.
# 8. Field name.
# 9. Field value.
1543609298,4ff0e527a9619e8ef59663077208aaec,Form,3,0,consent,NULL,,yes
1543609298,4ff0e527a9619e8ef59663077208aaec,Form,3,0,consent,NULL,_REACTION_TIME_,6089
1543609298,4ff0e527a9619e8ef59663077208aaec,Form,4,0,instructions,NULL,_REACTION_TIME_,1337
1543609298,4ff0e527a9619e8ef59663077208aaec,Form,5,0,story,9,_REACTION_TIME_,19412
# Columns below this comment are as follows:
# 1. Time results were received.
# 2. MD5 hash of participant's IP address.
# 3. Controller name.
# 4. Item number.
# 5. Element number.
# 6. Type.
# 7. Group.
# 8. Question (NULL if none).
# 9. Answer.
# 10. Whether or not answer was correct (NULL if N/A).
# 11. Time taken to answer.
1543609298,4ff0e527a9619e8ef59663077208aaec,Question,5,1,story,9,What's in the box%2C according to Mary?,a bomb,1,3490
1543609298,4ff0e527a9619e8ef59663077208aaec,Question,5,2,story,9,What was really in the box?,a pillow,0,1995
1543609298,4ff0e527a9619e8ef59663077208aaec,Question,5,3,story,9,Was Mary right about that?,no,1,2180
1543609298,4ff0e527a9619e8ef59663077208aaec,Question,7,0,politics,NULL,How worried are you about taxpayer money being wasted?,a little worried,NULL,5908
1543609298,4ff0e527a9619e8ef59663077208aaec,Question,6,0,politics,NULL,How worried are you about bombs being sent to government officials?,a little worried,NULL,1656
# Columns below this comment are as follows:
# 1. Time results were received.
# 2. MD5 hash of participant's IP address.
# 3. Controller name.
# 4. Item number.
# 5. Element number.
# 6. Type.
# 7. Group.
# 8. Field name.
# 9. Field value.
1543609298,4ff0e527a9619e8ef59663077208aaec,Form,8,0,subj_info,NULL,year,1991
1543609298,4ff0e527a9619e8ef59663077208aaec,Form,8,0,subj_info,NULL,language,English
1543609298,4ff0e527a9619e8ef59663077208aaec,Form,8,0,subj_info,NULL,idturk,A1ILOQZ922TXTW
1543609298,4ff0e527a9619e8ef59663077208aaec,Form,8,0,subj_info,NULL,comment,
1543609298,4ff0e527a9619e8ef59663077208aaec,Form,8,0,subj_info,NULL,sex,female
1543609298,4ff0e527a9619e8ef59663077208aaec,Form,8,0,subj_info,NULL,politics,republican
1543609298,4ff0e527a9619e8ef59663077208aaec,Form,8,0,subj_info,NULL,_REACTION_TIME_,13691
#
# Results on Friday November 30 2018 20:21:42 UTC.
# USER AGENT: Mozilla/5.0 (Macintosh; Intel Mac OS X 10.14; rv:63.0) Gecko/20100101 Firefox/63.0
# Design number was non-random = 3
#
# Columns below this comment are as follows:
# 1. Time results were received.
# 2. MD5 hash of participant's IP address.
# 3. Controller name.
# 4. Item number.
# 5. Element number.
# 6. Type.
# 7. Group.
# 8. Field name.
# 9. Field value.
1543609302,f15a4544c33a5f48434a4addcafba876,Form,3,0,consent,NULL,,yes
1543609302,f15a4544c33a5f48434a4addcafba876,Form,3,0,consent,NULL,_REACTION_TIME_,5813
1543609302,f15a4544c33a5f48434a4addcafba876,Form,4,0,instructions,NULL,_REACTION_TIME_,3774
1543609302,f15a4544c33a5f48434a4addcafba876,Form,5,0,story,9,_REACTION_TIME_,20311
# Columns below this comment are as follows:
# 1. Time results were received.
# 2. MD5 hash of participant's IP address.
# 3. Controller name.
# 4. Item number.
# 5. Element number.
# 6. Type.
# 7. Group.
# 8. Question (NULL if none).
# 9. Answer.
# 10. Whether or not answer was correct (NULL if N/A).
# 11. Time taken to answer.
1543609302,f15a4544c33a5f48434a4addcafba876,Question,5,1,story,9,What's in the box%2C according to Mary?,a bomb,1,2713
1543609302,f15a4544c33a5f48434a4addcafba876,Question,5,2,story,9,What was really in the box?,a pillow,0,1930
1543609302,f15a4544c33a5f48434a4addcafba876,Question,5,3,story,9,Was Mary right about that?,no,1,2822
1543609302,f15a4544c33a5f48434a4addcafba876,Question,7,0,politics,NULL,How worried are you about taxpayer money being wasted?,a little worried,NULL,8615
1543609302,f15a4544c33a5f48434a4addcafba876,Question,6,0,politics,NULL,How worried are you about bombs being sent to government officials?,a little worried,NULL,4037
# Columns below this comment are as follows:
# 1. Time results were received.
# 2. MD5 hash of participant's IP address.
# 3. Controller name.
# 4. Item number.
# 5. Element number.
# 6. Type.
# 7. Group.
# 8. Field name.
# 9. Field value.
1543609302,f15a4544c33a5f48434a4addcafba876,Form,8,0,subj_info,NULL,year,1950
1543609302,f15a4544c33a5f48434a4addcafba876,Form,8,0,subj_info,NULL,language,english
1543609302,f15a4544c33a5f48434a4addcafba876,Form,8,0,subj_info,NULL,idturk,A11G1TGXX3YS24
1543609302,f15a4544c33a5f48434a4addcafba876,Form,8,0,subj_info,NULL,comment,none
1543609302,f15a4544c33a5f48434a4addcafba876,Form,8,0,subj_info,NULL,sex,female
1543609302,f15a4544c33a5f48434a4addcafba876,Form,8,0,subj_info,NULL,politics,democrat
1543609302,f15a4544c33a5f48434a4addcafba876,Form,8,0,subj_info,NULL,_REACTION_TIME_,35222
#
# Results on Friday November 30 2018 20:22:36 UTC.
# USER AGENT: Mozilla/5.0 (Macintosh; Intel Mac OS X 10_12_6) AppleWebKit/537.36 (KHTML, like Gecko) Chrome/70.0.3538.110 Safari/537.36
# Design number was non-random = 7
#
# Columns below this comment are as follows:
# 1. Time results were received.
# 2. MD5 hash of participant's IP address.
# 3. Controller name.
# 4. Item number.
# 5. Element number.
# 6. Type.
# 7. Group.
# 8. Field name.
# 9. Field value.
1543609357,a827c1c80c76444d13a84ae0a16eb5a6,Form,3,0,consent,NULL,,yes
1543609357,a827c1c80c76444d13a84ae0a16eb5a6,Form,3,0,consent,NULL,_REACTION_TIME_,6024
1543609357,a827c1c80c76444d13a84ae0a16eb5a6,Form,4,0,instructions,NULL,_REACTION_TIME_,2125
1543609357,a827c1c80c76444d13a84ae0a16eb5a6,Form,5,0,story,9,_REACTION_TIME_,31761
# Columns below this comment are as follows:
# 1. Time results were received.
# 2. MD5 hash of participant's IP address.
# 3. Controller name.
# 4. Item number.
# 5. Element number.
# 6. Type.
# 7. Group.
# 8. Question (NULL if none).
# 9. Answer.
# 10. Whether or not answer was correct (NULL if N/A).
# 11. Time taken to answer.
1543609357,a827c1c80c76444d13a84ae0a16eb5a6,Question,5,1,story,9,What's in the box%2C according to Mary?,a pillow,0,3382
1543609357,a827c1c80c76444d13a84ae0a16eb5a6,Question,5,2,story,9,What was really in the box?,a pillow,0,2704
1543609357,a827c1c80c76444d13a84ae0a16eb5a6,Question,5,3,story,9,Was Mary right about that?,no,1,1801
1543609357,a827c1c80c76444d13a84ae0a16eb5a6,Question,7,0,politics,NULL,How worried are you about taxpayer money being wasted?,very worried,NULL,5706
1543609357,a827c1c80c76444d13a84ae0a16eb5a6,Question,6,0,politics,NULL,How worried are you about bombs being sent to government officials?,a little worried,NULL,3461
# Columns below this comment are as follows:
# 1. Time results were received.
# 2. MD5 hash of participant's IP address.
# 3. Controller name.
# 4. Item number.
# 5. Element number.
# 6. Type.
# 7. Group.
# 8. Field name.
# 9. Field value.
1543609357,a827c1c80c76444d13a84ae0a16eb5a6,Form,8,0,subj_info,NULL,year,1979
1543609357,a827c1c80c76444d13a84ae0a16eb5a6,Form,8,0,subj_info,NULL,language,English
1543609357,a827c1c80c76444d13a84ae0a16eb5a6,Form,8,0,subj_info,NULL,idturk,A3UTN0AYFPC3QM
1543609357,a827c1c80c76444d13a84ae0a16eb5a6,Form,8,0,subj_info,NULL,comment,
1543609357,a827c1c80c76444d13a84ae0a16eb5a6,Form,8,0,subj_info,NULL,sex,male
1543609357,a827c1c80c76444d13a84ae0a16eb5a6,Form,8,0,subj_info,NULL,politics,democrat
1543609357,a827c1c80c76444d13a84ae0a16eb5a6,Form,8,0,subj_info,NULL,_REACTION_TIME_,17212
#
# Results on Friday November 30 2018 20:23:03 UTC.
# USER AGENT: Mozilla/5.0 (Windows NT 10.0; Win64; x64) AppleWebKit/537.36 (KHTML, like Gecko) Chrome/70.0.3538.110 Safari/537.36
# Design number was non-random = 6
#
# Columns below this comment are as follows:
# 1. Time results were received.
# 2. MD5 hash of participant's IP address.
# 3. Controller name.
# 4. Item number.
# 5. Element number.
# 6. Type.
# 7. Group.
# 8. Field name.
# 9. Field value.
1543609383,92e92ca7475519319c69d46ac2663f28,Form,3,0,consent,NULL,,yes
1543609383,92e92ca7475519319c69d46ac2663f28,Form,3,0,consent,NULL,_REACTION_TIME_,47077
1543609383,92e92ca7475519319c69d46ac2663f28,Form,4,0,instructions,NULL,_REACTION_TIME_,5813
1543609383,92e92ca7475519319c69d46ac2663f28,Form,5,0,story,9,_REACTION_TIME_,22115
# Columns below this comment are as follows:
# 1. Time results were received.
# 2. MD5 hash of participant's IP address.
# 3. Controller name.
# 4. Item number.
# 5. Element number.
# 6. Type.
# 7. Group.
# 8. Question (NULL if none).
# 9. Answer.
# 10. Whether or not answer was correct (NULL if N/A).
# 11. Time taken to answer.
1543609383,92e92ca7475519319c69d46ac2663f28,Question,5,1,story,9,What's in the box%2C according to Mary?,a bomb,1,5338
1543609383,92e92ca7475519319c69d46ac2663f28,Question,5,2,story,9,What was really in the box?,a pillow,0,2523
1543609383,92e92ca7475519319c69d46ac2663f28,Question,5,3,story,9,Was Mary right about that?,no,1,2982
1543609383,92e92ca7475519319c69d46ac2663f28,Question,7,0,politics,NULL,How worried are you about taxpayer money being wasted?,a little worried,NULL,4756
1543609383,92e92ca7475519319c69d46ac2663f28,Question,6,0,politics,NULL,How worried are you about bombs being sent to government officials?,very worried,NULL,4689
# Columns below this comment are as follows:
# 1. Time results were received.
# 2. MD5 hash of participant's IP address.
# 3. Controller name.
# 4. Item number.
# 5. Element number.
# 6. Type.
# 7. Group.
# 8. Field name.
# 9. Field value.
1543609383,92e92ca7475519319c69d46ac2663f28,Form,8,0,subj_info,NULL,year,1985
1543609383,92e92ca7475519319c69d46ac2663f28,Form,8,0,subj_info,NULL,language,English
1543609383,92e92ca7475519319c69d46ac2663f28,Form,8,0,subj_info,NULL,idturk,AAYJ1XJ00PF2Z
1543609383,92e92ca7475519319c69d46ac2663f28,Form,8,0,subj_info,NULL,comment,
1543609383,92e92ca7475519319c69d46ac2663f28,Form,8,0,subj_info,NULL,sex,female
1543609383,92e92ca7475519319c69d46ac2663f28,Form,8,0,subj_info,NULL,politics,republican
1543609383,92e92ca7475519319c69d46ac2663f28,Form,8,0,subj_info,NULL,_REACTION_TIME_,29719
#
# Results on Friday November 30 2018 20:23:03 UTC.
# USER AGENT: Mozilla/5.0 (Windows NT 10.0; Win64; x64) AppleWebKit/537.36 (KHTML, like Gecko) Chrome/70.0.3538.110 Safari/537.36
# Design number was non-random = 8
#
# Columns below this comment are as follows:
# 1. Time results were received.
# 2. MD5 hash of participant's IP address.
# 3. Controller name.
# 4. Item number.
# 5. Element number.
# 6. Type.
# 7. Group.
# 8. Field name.
# 9. Field value.
1543609383,c0595279dc9d44bac469df5ff4771bf1,Form,3,0,consent,NULL,,yes
1543609383,c0595279dc9d44bac469df5ff4771bf1,Form,3,0,consent,NULL,_REACTION_TIME_,6922
1543609383,c0595279dc9d44bac469df5ff4771bf1,Form,4,0,instructions,NULL,_REACTION_TIME_,2646
1543609383,c0595279dc9d44bac469df5ff4771bf1,Form,5,0,story,9,_REACTION_TIME_,32225
# Columns below this comment are as follows:
# 1. Time results were received.
# 2. MD5 hash of participant's IP address.
# 3. Controller name.
# 4. Item number.
# 5. Element number.
# 6. Type.
# 7. Group.
# 8. Question (NULL if none).
# 9. Answer.
# 10. Whether or not answer was correct (NULL if N/A).
# 11. Time taken to answer.
1543609383,c0595279dc9d44bac469df5ff4771bf1,Question,5,1,story,9,What's in the box%2C according to Mary?,a bomb,1,8338
1543609383,c0595279dc9d44bac469df5ff4771bf1,Question,5,2,story,9,What was really in the box?,a pillow,0,1671
1543609383,c0595279dc9d44bac469df5ff4771bf1,Question,5,3,story,9,Was Mary right about that?,no,1,2672
1543609383,c0595279dc9d44bac469df5ff4771bf1,Question,6,0,politics,NULL,How worried are you about bombs being sent to government officials?,not at all worried,NULL,6477
1543609383,c0595279dc9d44bac469df5ff4771bf1,Question,7,0,politics,NULL,How worried are you about taxpayer money being wasted?,very worried,NULL,4061
# Columns below this comment are as follows:
# 1. Time results were received.
# 2. MD5 hash of participant's IP address.
# 3. Controller name.
# 4. Item number.
# 5. Element number.
# 6. Type.
# 7. Group.
# 8. Field name.
# 9. Field value.
1543609383,c0595279dc9d44bac469df5ff4771bf1,Form,8,0,subj_info,NULL,year,1972
1543609383,c0595279dc9d44bac469df5ff4771bf1,Form,8,0,subj_info,NULL,language,english
1543609383,c0595279dc9d44bac469df5ff4771bf1,Form,8,0,subj_info,NULL,idturk,A26LOVXF4QZZCO
1543609383,c0595279dc9d44bac469df5ff4771bf1,Form,8,0,subj_info,NULL,comment,
1543609383,c0595279dc9d44bac469df5ff4771bf1,Form,8,0,subj_info,NULL,sex,male
1543609383,c0595279dc9d44bac469df5ff4771bf1,Form,8,0,subj_info,NULL,politics,other
1543609383,c0595279dc9d44bac469df5ff4771bf1,Form,8,0,subj_info,NULL,_REACTION_TIME_,17140
#
# Results on Friday November 30 2018 20:23:37 UTC.
# USER AGENT: Mozilla/5.0 (Windows NT 6.1; WOW64; Trident/7.0; rv:11.0) like Gecko
# Design number was non-random = 9
#
# Columns below this comment are as follows:
# 1. Time results were received.
# 2. MD5 hash of participant's IP address.
# 3. Controller name.
# 4. Item number.
# 5. Element number.
# 6. Type.
# 7. Group.
# 8. Field name.
# 9. Field value.
1543609418,ef218c83cfb54de2ead5941e1d4df125,Form,3,0,consent,NULL,,yes
1543609418,ef218c83cfb54de2ead5941e1d4df125,Form,3,0,consent,NULL,_REACTION_TIME_,7105
1543609418,ef218c83cfb54de2ead5941e1d4df125,Form,4,0,instructions,NULL,_REACTION_TIME_,2344
1543609418,ef218c83cfb54de2ead5941e1d4df125,Form,5,0,story,9,_REACTION_TIME_,10538
# Columns below this comment are as follows:
# 1. Time results were received.
# 2. MD5 hash of participant's IP address.
# 3. Controller name.
# 4. Item number.
# 5. Element number.
# 6. Type.
# 7. Group.
# 8. Question (NULL if none).
# 9. Answer.
# 10. Whether or not answer was correct (NULL if N/A).
# 11. Time taken to answer.
1543609418,ef218c83cfb54de2ead5941e1d4df125,Question,5,1,story,9,What's in the box%2C according to Mary?,a bomb,1,2953
1543609418,ef218c83cfb54de2ead5941e1d4df125,Question,5,2,story,9,What was really in the box?,a pillow,0,1546
1543609418,ef218c83cfb54de2ead5941e1d4df125,Question,5,3,story,9,Was Mary right about that?,no,1,3170
1543609418,ef218c83cfb54de2ead5941e1d4df125,Question,7,0,politics,NULL,How worried are you about taxpayer money being wasted?,not at all worried,NULL,2562
1543609418,ef218c83cfb54de2ead5941e1d4df125,Question,6,0,politics,NULL,How worried are you about bombs being sent to government officials?,a little worried,NULL,4496
# Columns below this comment are as follows:
# 1. Time results were received.
# 2. MD5 hash of participant's IP address.
# 3. Controller name.
# 4. Item number.
# 5. Element number.
# 6. Type.
# 7. Group.
# 8. Field name.
# 9. Field value.
1543609418,ef218c83cfb54de2ead5941e1d4df125,Form,8,0,subj_info,NULL,year,1987
1543609418,ef218c83cfb54de2ead5941e1d4df125,Form,8,0,subj_info,NULL,language,English
1543609418,ef218c83cfb54de2ead5941e1d4df125,Form,8,0,subj_info,NULL,idturk,A3A05FW2HAWPBM
1543609418,ef218c83cfb54de2ead5941e1d4df125,Form,8,0,subj_info,NULL,comment,
1543609418,ef218c83cfb54de2ead5941e1d4df125,Form,8,0,subj_info,NULL,sex,female
1543609418,ef218c83cfb54de2ead5941e1d4df125,Form,8,0,subj_info,NULL,politics,democrat
1543609418,ef218c83cfb54de2ead5941e1d4df125,Form,8,0,subj_info,NULL,_REACTION_TIME_,33049
#
# Results on Friday November 30 2018 20:24:00 UTC.
# USER AGENT: Mozilla/5.0 (Windows NT 10.0; Win64; x64) AppleWebKit/537.36 (KHTML, like Gecko) Chrome/70.0.3538.102 Safari/537.36
# Design number was non-random = 9
#
# Columns below this comment are as follows:
# 1. Time results were received.
# 2. MD5 hash of participant's IP address.
# 3. Controller name.
# 4. Item number.
# 5. Element number.
# 6. Type.
# 7. Group.
# 8. Field name.
# 9. Field value.
1543609441,b0bf2cf53ec96a6f6ef49201cd298cde,Form,3,0,consent,NULL,,yes
1543609441,b0bf2cf53ec96a6f6ef49201cd298cde,Form,3,0,consent,NULL,_REACTION_TIME_,11914
1543609441,b0bf2cf53ec96a6f6ef49201cd298cde,Form,4,0,instructions,NULL,_REACTION_TIME_,2782
1543609441,b0bf2cf53ec96a6f6ef49201cd298cde,Form,5,0,story,9,_REACTION_TIME_,33928
# Columns below this comment are as follows:
# 1. Time results were received.
# 2. MD5 hash of participant's IP address.
# 3. Controller name.
# 4. Item number.
# 5. Element number.
# 6. Type.
# 7. Group.
# 8. Question (NULL if none).
# 9. Answer.
# 10. Whether or not answer was correct (NULL if N/A).
# 11. Time taken to answer.
1543609441,b0bf2cf53ec96a6f6ef49201cd298cde,Question,5,1,story,9,What's in the box%2C according to Mary?,a pillow,0,3279
1543609441,b0bf2cf53ec96a6f6ef49201cd298cde,Question,5,2,story,9,What was really in the box?,a pillow,0,2678
1543609441,b0bf2cf53ec96a6f6ef49201cd298cde,Question,5,3,story,9,Was Mary right about that?,no,1,17477
1543609441,b0bf2cf53ec96a6f6ef49201cd298cde,Question,7,0,politics,NULL,How worried are you about taxpayer money being wasted?,a little worried,NULL,6614
1543609441,b0bf2cf53ec96a6f6ef49201cd298cde,Question,6,0,politics,NULL,How worried are you about bombs being sent to government officials?,very worried,NULL,5554
# Columns below this comment are as follows:
# 1. Time results were received.
# 2. MD5 hash of participant's IP address.
# 3. Controller name.
# 4. Item number.
# 5. Element number.
# 6. Type.
# 7. Group.
# 8. Field name.
# 9. Field value.
1543609441,b0bf2cf53ec96a6f6ef49201cd298cde,Form,8,0,subj_info,NULL,year,1965
1543609441,b0bf2cf53ec96a6f6ef49201cd298cde,Form,8,0,subj_info,NULL,language,English
1543609441,b0bf2cf53ec96a6f6ef49201cd298cde,Form,8,0,subj_info,NULL,idturk,AXEXQBM7B2QT9
1543609441,b0bf2cf53ec96a6f6ef49201cd298cde,Form,8,0,subj_info,NULL,comment,None
1543609441,b0bf2cf53ec96a6f6ef49201cd298cde,Form,8,0,subj_info,NULL,sex,female
1543609441,b0bf2cf53ec96a6f6ef49201cd298cde,Form,8,0,subj_info,NULL,politics,democrat
1543609441,b0bf2cf53ec96a6f6ef49201cd298cde,Form,8,0,subj_info,NULL,_REACTION_TIME_,21055
#
# Results on Friday November 30 2018 20:24:16 UTC.
# USER AGENT: Mozilla/5.0 (Windows NT 10.0; Win64; x64) AppleWebKit/537.36 (KHTML, like Gecko) Chrome/69.0.3497.100 Safari/537.36 OPR/56.0.3051.116
# Design number was non-random = 3
#
# Columns below this comment are as follows:
# 1. Time results were received.
# 2. MD5 hash of participant's IP address.
# 3. Controller name.
# 4. Item number.
# 5. Element number.
# 6. Type.
# 7. Group.
# 8. Field name.
# 9. Field value.
1543609456,43e18028be6fce331da600b832d5a464,Form,3,0,consent,NULL,,yes
1543609456,43e18028be6fce331da600b832d5a464,Form,3,0,consent,NULL,_REACTION_TIME_,160701
1543609456,43e18028be6fce331da600b832d5a464,Form,4,0,instructions,NULL,_REACTION_TIME_,3751
1543609456,43e18028be6fce331da600b832d5a464,Form,5,0,story,9,_REACTION_TIME_,36646
# Columns below this comment are as follows:
# 1. Time results were received.
# 2. MD5 hash of participant's IP address.
# 3. Controller name.
# 4. Item number.
# 5. Element number.
# 6. Type.
# 7. Group.
# 8. Question (NULL if none).
# 9. Answer.
# 10. Whether or not answer was correct (NULL if N/A).
# 11. Time taken to answer.
1543609456,43e18028be6fce331da600b832d5a464,Question,5,1,story,9,What's in the box%2C according to Mary?,a bomb,1,5415
1543609456,43e18028be6fce331da600b832d5a464,Question,5,2,story,9,What was really in the box?,a pillow,0,2820
1543609456,43e18028be6fce331da600b832d5a464,Question,5,3,story,9,Was Mary right about that?,no,1,5412
1543609456,43e18028be6fce331da600b832d5a464,Question,7,0,politics,NULL,How worried are you about taxpayer money being wasted?,very worried,NULL,3713
1543609456,43e18028be6fce331da600b832d5a464,Question,6,0,politics,NULL,How worried are you about bombs being sent to government officials?,not at all worried,NULL,5729
# Columns below this comment are as follows:
# 1. Time results were received.
# 2. MD5 hash of participant's IP address.
# 3. Controller name.
# 4. Item number.
# 5. Element number.
# 6. Type.
# 7. Group.
# 8. Field name.
# 9. Field value.
1543609456,43e18028be6fce331da600b832d5a464,Form,8,0,subj_info,NULL,year,1992
1543609456,43e18028be6fce331da600b832d5a464,Form,8,0,subj_info,NULL,language,English
1543609456,43e18028be6fce331da600b832d5a464,Form,8,0,subj_info,NULL,idturk,A8SAUO327OMJ
1543609456,43e18028be6fce331da600b832d5a464,Form,8,0,subj_info,NULL,comment,
1543609456,43e18028be6fce331da600b832d5a464,Form,8,0,subj_info,NULL,sex,male
1543609456,43e18028be6fce331da600b832d5a464,Form,8,0,subj_info,NULL,politics,republican
1543609456,43e18028be6fce331da600b832d5a464,Form,8,0,subj_info,NULL,_REACTION_TIME_,38675
#
# Results on Friday November 30 2018 20:26:07 UTC.
# USER AGENT: Mozilla/5.0 (Windows NT 6.2; Win64; x64) AppleWebKit/537.36 (KHTML, like Gecko) Chrome/70.0.3538.110 Safari/537.36
# Design number was non-random = 15
#
# Columns below this comment are as follows:
# 1. Time results were received.
# 2. MD5 hash of participant's IP address.
# 3. Controller name.
# 4. Item number.
# 5. Element number.
# 6. Type.
# 7. Group.
# 8. Field name.
# 9. Field value.
1543609568,ecbffbae5ff36298e43f43dc82c9cd45,Form,3,0,consent,NULL,,yes
1543609568,ecbffbae5ff36298e43f43dc82c9cd45,Form,3,0,consent,NULL,_REACTION_TIME_,12290
1543609568,ecbffbae5ff36298e43f43dc82c9cd45,Form,4,0,instructions,NULL,_REACTION_TIME_,2059
1543609568,ecbffbae5ff36298e43f43dc82c9cd45,Form,5,0,story,9,_REACTION_TIME_,15838
# Columns below this comment are as follows:
# 1. Time results were received.
# 2. MD5 hash of participant's IP address.
# 3. Controller name.
# 4. Item number.
# 5. Element number.
# 6. Type.
# 7. Group.
# 8. Question (NULL if none).
# 9. Answer.
# 10. Whether or not answer was correct (NULL if N/A).
# 11. Time taken to answer.
1543609568,ecbffbae5ff36298e43f43dc82c9cd45,Question,5,1,story,9,What's in the box%2C according to Mary?,a bomb,1,3339
1543609568,ecbffbae5ff36298e43f43dc82c9cd45,Question,5,2,story,9,What was really in the box?,a pillow,0,1637
1543609568,ecbffbae5ff36298e43f43dc82c9cd45,Question,5,3,story,9,Was Mary right about that?,no,1,2518
1543609568,ecbffbae5ff36298e43f43dc82c9cd45,Question,7,0,politics,NULL,How worried are you about taxpayer money being wasted?,not at all worried,NULL,2558
1543609568,ecbffbae5ff36298e43f43dc82c9cd45,Question,6,0,politics,NULL,How worried are you about bombs being sent to government officials?,a little worried,NULL,2750
# Columns below this comment are as follows:
# 1. Time results were received.
# 2. MD5 hash of participant's IP address.
# 3. Controller name.
# 4. Item number.
# 5. Element number.
# 6. Type.
# 7. Group.
# 8. Field name.
# 9. Field value.
1543609568,ecbffbae5ff36298e43f43dc82c9cd45,Form,8,0,subj_info,NULL,year,1984
1543609568,ecbffbae5ff36298e43f43dc82c9cd45,Form,8,0,subj_info,NULL,language,english
1543609568,ecbffbae5ff36298e43f43dc82c9cd45,Form,8,0,subj_info,NULL,idturk,A3HHHZF9N10QMQ
1543609568,ecbffbae5ff36298e43f43dc82c9cd45,Form,8,0,subj_info,NULL,comment,
1543609568,ecbffbae5ff36298e43f43dc82c9cd45,Form,8,0,subj_info,NULL,sex,female
1543609568,ecbffbae5ff36298e43f43dc82c9cd45,Form,8,0,subj_info,NULL,politics,democrat
1543609568,ecbffbae5ff36298e43f43dc82c9cd45,Form,8,0,subj_info,NULL,_REACTION_TIME_,14277
#
# Results on Friday November 30 2018 20:27:02 UTC.
# USER AGENT: Mozilla/5.0 (Macintosh; Intel Mac OS X 10_14_1) AppleWebKit/537.36 (KHTML, like Gecko) Chrome/70.0.3538.110 Safari/537.36
# Design number was non-random = 15
#
# Columns below this comment are as follows:
# 1. Time results were received.
# 2. MD5 hash of participant's IP address.
# 3. Controller name.
# 4. Item number.
# 5. Element number.
# 6. Type.
# 7. Group.
# 8. Field name.
# 9. Field value.
1543609622,277af5629f8b2a46edc1906ff42745bd,Form,3,0,consent,NULL,,yes
1543609622,277af5629f8b2a46edc1906ff42745bd,Form,3,0,consent,NULL,_REACTION_TIME_,5331
1543609622,277af5629f8b2a46edc1906ff42745bd,Form,4,0,instructions,NULL,_REACTION_TIME_,2340
1543609622,277af5629f8b2a46edc1906ff42745bd,Form,5,0,story,9,_REACTION_TIME_,14160
# Columns below this comment are as follows:
# 1. Time results were received.
# 2. MD5 hash of participant's IP address.
# 3. Controller name.
# 4. Item number.
# 5. Element number.
# 6. Type.
# 7. Group.
# 8. Question (NULL if none).
# 9. Answer.
# 10. Whether or not answer was correct (NULL if N/A).
# 11. Time taken to answer.
1543609622,277af5629f8b2a46edc1906ff42745bd,Question,5,1,story,9,What's in the box%2C according to Mary?,a pillow,0,4767
1543609622,277af5629f8b2a46edc1906ff42745bd,Question,5,2,story,9,What was really in the box?,a pillow,0,2009
1543609622,277af5629f8b2a46edc1906ff42745bd,Question,5,3,story,9,Was Mary right about that?,yes,0,2469
1543609622,277af5629f8b2a46edc1906ff42745bd,Question,6,0,politics,NULL,How worried are you about bombs being sent to government officials?,a little worried,NULL,4198
1543609622,277af5629f8b2a46edc1906ff42745bd,Question,7,0,politics,NULL,How worried are you about taxpayer money being wasted?,a little worried,NULL,4111
# Columns below this comment are as follows:
# 1. Time results were received.
# 2. MD5 hash of participant's IP address.
# 3. Controller name.
# 4. Item number.
# 5. Element number.
# 6. Type.
# 7. Group.
# 8. Field name.
# 9. Field value.
1543609622,277af5629f8b2a46edc1906ff42745bd,Form,8,0,subj_info,NULL,year,1997
1543609622,277af5629f8b2a46edc1906ff42745bd,Form,8,0,subj_info,NULL,language,english
1543609622,277af5629f8b2a46edc1906ff42745bd,Form,8,0,subj_info,NULL,idturk,A3EM9MIXNHEXOA
1543609622,277af5629f8b2a46edc1906ff42745bd,Form,8,0,subj_info,NULL,comment,
1543609622,277af5629f8b2a46edc1906ff42745bd,Form,8,0,subj_info,NULL,sex,female
1543609622,277af5629f8b2a46edc1906ff42745bd,Form,8,0,subj_info,NULL,politics,democrat
1543609622,277af5629f8b2a46edc1906ff42745bd,Form,8,0,subj_info,NULL,_REACTION_TIME_,37043
#
# Results on Friday November 30 2018 20:27:03 UTC.
# USER AGENT: Mozilla/5.0 (Windows NT 10.0; Win64; x64) AppleWebKit/537.36 (KHTML, like Gecko) Chrome/70.0.3538.110 Safari/537.36
# Design number was non-random = 13
#
# Columns below this comment are as follows:
# 1. Time results were received.
# 2. MD5 hash of participant's IP address.
# 3. Controller name.
# 4. Item number.
# 5. Element number.
# 6. Type.
# 7. Group.
# 8. Field name.
# 9. Field value.
1543609624,8216596aa43f38b253cd57ef26c9e8e2,Form,3,0,consent,NULL,,yes
1543609624,8216596aa43f38b253cd57ef26c9e8e2,Form,3,0,consent,NULL,_REACTION_TIME_,25258
1543609624,8216596aa43f38b253cd57ef26c9e8e2,Form,4,0,instructions,NULL,_REACTION_TIME_,2795
1543609624,8216596aa43f38b253cd57ef26c9e8e2,Form,5,0,story,9,_REACTION_TIME_,107372
# Columns below this comment are as follows:
# 1. Time results were received.
# 2. MD5 hash of participant's IP address.
# 3. Controller name.
# 4. Item number.
# 5. Element number.
# 6. Type.
# 7. Group.
# 8. Question (NULL if none).
# 9. Answer.
# 10. Whether or not answer was correct (NULL if N/A).
# 11. Time taken to answer.
1543609624,8216596aa43f38b253cd57ef26c9e8e2,Question,5,1,story,9,What's in the box%2C according to Mary?,a bomb,1,4793
1543609624,8216596aa43f38b253cd57ef26c9e8e2,Question,5,2,story,9,What was really in the box?,a pillow,0,1540
1543609624,8216596aa43f38b253cd57ef26c9e8e2,Question,5,3,story,9,Was Mary right about that?,no,1,3148
1543609624,8216596aa43f38b253cd57ef26c9e8e2,Question,7,0,politics,NULL,How worried are you about taxpayer money being wasted?,not at all worried,NULL,4036
1543609624,8216596aa43f38b253cd57ef26c9e8e2,Question,6,0,politics,NULL,How worried are you about bombs being sent to government officials?,a little worried,NULL,3692
# Columns below this comment are as follows:
# 1. Time results were received.
# 2. MD5 hash of participant's IP address.
# 3. Controller name.
# 4. Item number.
# 5. Element number.
# 6. Type.
# 7. Group.
# 8. Field name.
# 9. Field value.
1543609624,8216596aa43f38b253cd57ef26c9e8e2,Form,8,0,subj_info,NULL,year,1965
1543609624,8216596aa43f38b253cd57ef26c9e8e2,Form,8,0,subj_info,NULL,language,English
1543609624,8216596aa43f38b253cd57ef26c9e8e2,Form,8,0,subj_info,NULL,idturk,A2OL29JXZUMFM9
1543609624,8216596aa43f38b253cd57ef26c9e8e2,Form,8,0,subj_info,NULL,comment,
1543609624,8216596aa43f38b253cd57ef26c9e8e2,Form,8,0,subj_info,NULL,sex,female
1543609624,8216596aa43f38b253cd57ef26c9e8e2,Form,8,0,subj_info,NULL,politics,democrat
1543609624,8216596aa43f38b253cd57ef26c9e8e2,Form,8,0,subj_info,NULL,_REACTION_TIME_,26732
#
# Results on Friday November 30 2018 20:28:24 UTC.
# USER AGENT: Mozilla/5.0 (Windows NT 10.0; Win64; x64) AppleWebKit/537.36 (KHTML, like Gecko) Chrome/70.0.3538.110 Safari/537.36
# Design number was non-random = 18
#
# Columns below this comment are as follows:
# 1. Time results were received.
# 2. MD5 hash of participant's IP address.
# 3. Controller name.
# 4. Item number.
# 5. Element number.
# 6. Type.
# 7. Group.
# 8. Field name.
# 9. Field value.
1543609704,f295e2bdd3374246abdb08678f761d95,Form,3,0,consent,NULL,,yes
1543609704,f295e2bdd3374246abdb08678f761d95,Form,3,0,consent,NULL,_REACTION_TIME_,3018
1543609704,f295e2bdd3374246abdb08678f761d95,Form,4,0,instructions,NULL,_REACTION_TIME_,2283
1543609704,f295e2bdd3374246abdb08678f761d95,Form,5,0,story,9,_REACTION_TIME_,15235
# Columns below this comment are as follows:
# 1. Time results were received.
# 2. MD5 hash of participant's IP address.
# 3. Controller name.
# 4. Item number.
# 5. Element number.
# 6. Type.
# 7. Group.
# 8. Question (NULL if none).
# 9. Answer.
# 10. Whether or not answer was correct (NULL if N/A).
# 11. Time taken to answer.
1543609704,f295e2bdd3374246abdb08678f761d95,Question,5,1,story,9,What's in the box%2C according to Mary?,a bomb,1,3329
1543609704,f295e2bdd3374246abdb08678f761d95,Question,5,2,story,9,What was really in the box?,a pillow,0,1982
1543609704,f295e2bdd3374246abdb08678f761d95,Question,5,3,story,9,Was Mary right about that?,no,1,2978
1543609704,f295e2bdd3374246abdb08678f761d95,Question,7,0,politics,NULL,How worried are you about taxpayer money being wasted?,not at all worried,NULL,2754
1543609704,f295e2bdd3374246abdb08678f761d95,Question,6,0,politics,NULL,How worried are you about bombs being sent to government officials?,very worried,NULL,2662
# Columns below this comment are as follows:
# 1. Time results were received.
# 2. MD5 hash of participant's IP address.
# 3. Controller name.
# 4. Item number.
# 5. Element number.
# 6. Type.
# 7. Group.
# 8. Field name.
# 9. Field value.
1543609704,f295e2bdd3374246abdb08678f761d95,Form,8,0,subj_info,NULL,year,1988
1543609704,f295e2bdd3374246abdb08678f761d95,Form,8,0,subj_info,NULL,language,English
1543609704,f295e2bdd3374246abdb08678f761d95,Form,8,0,subj_info,NULL,idturk,AE363E5ESWSXJ
1543609704,f295e2bdd3374246abdb08678f761d95,Form,8,0,subj_info,NULL,comment,
1543609704,f295e2bdd3374246abdb08678f761d95,Form,8,0,subj_info,NULL,sex,male
1543609704,f295e2bdd3374246abdb08678f761d95,Form,8,0,subj_info,NULL,politics,democrat
1543609704,f295e2bdd3374246abdb08678f761d95,Form,8,0,subj_info,NULL,_REACTION_TIME_,22747
#
# Results on Friday November 30 2018 20:28:54 UTC.
# USER AGENT: Mozilla/5.0 (Windows NT 10.0; Win64; x64) AppleWebKit/537.36 (KHTML, like Gecko) Chrome/70.0.3538.110 Safari/537.36
# Design number was non-random = 16
#
# Columns below this comment are as follows:
# 1. Time results were received.
# 2. MD5 hash of participant's IP address.
# 3. Controller name.
# 4. Item number.
# 5. Element number.
# 6. Type.
# 7. Group.
# 8. Field name.
# 9. Field value.
1543609735,ad4b31798669e5d6655aa2515754f0fd,Form,3,0,consent,NULL,,yes
1543609735,ad4b31798669e5d6655aa2515754f0fd,Form,3,0,consent,NULL,_REACTION_TIME_,29525
1543609735,ad4b31798669e5d6655aa2515754f0fd,Form,4,0,instructions,NULL,_REACTION_TIME_,3829
1543609735,ad4b31798669e5d6655aa2515754f0fd,Form,5,0,story,9,_REACTION_TIME_,26377
# Columns below this comment are as follows:
# 1. Time results were received.
# 2. MD5 hash of participant's IP address.
# 3. Controller name.
# 4. Item number.
# 5. Element number.
# 6. Type.
# 7. Group.
# 8. Question (NULL if none).
# 9. Answer.
# 10. Whether or not answer was correct (NULL if N/A).
# 11. Time taken to answer.
1543609735,ad4b31798669e5d6655aa2515754f0fd,Question,5,1,story,9,What's in the box%2C according to Mary?,a bomb,1,4594
1543609735,ad4b31798669e5d6655aa2515754f0fd,Question,5,2,story,9,What was really in the box?,a pillow,0,2636
1543609735,ad4b31798669e5d6655aa2515754f0fd,Question,5,3,story,9,Was Mary right about that?,no,1,2877
1543609735,ad4b31798669e5d6655aa2515754f0fd,Question,6,0,politics,NULL,How worried are you about bombs being sent to government officials?,a little worried,NULL,4061
1543609735,ad4b31798669e5d6655aa2515754f0fd,Question,7,0,politics,NULL,How worried are you about taxpayer money being wasted?,a little worried,NULL,2989
# Columns below this comment are as follows:
# 1. Time results were received.
# 2. MD5 hash of participant's IP address.
# 3. Controller name.
# 4. Item number.
# 5. Element number.
# 6. Type.
# 7. Group.
# 8. Field name.
# 9. Field value.
1543609735,ad4b31798669e5d6655aa2515754f0fd,Form,8,0,subj_info,NULL,year,1996
1543609735,ad4b31798669e5d6655aa2515754f0fd,Form,8,0,subj_info,NULL,language,English
1543609735,ad4b31798669e5d6655aa2515754f0fd,Form,8,0,subj_info,NULL,idturk,A31R6PT4WCEZ9K
1543609735,ad4b31798669e5d6655aa2515754f0fd,Form,8,0,subj_info,NULL,comment,
1543609735,ad4b31798669e5d6655aa2515754f0fd,Form,8,0,subj_info,NULL,sex,female
1543609735,ad4b31798669e5d6655aa2515754f0fd,Form,8,0,subj_info,NULL,politics,democrat
1543609735,ad4b31798669e5d6655aa2515754f0fd,Form,8,0,subj_info,NULL,_REACTION_TIME_,59568
#
# Results on Friday November 30 2018 20:30:36 UTC.
# USER AGENT: Mozilla/5.0 (Macintosh; Intel Mac OS X 10.9; rv:52.0) Gecko/20100101 Firefox/52.0
# Design number was non-random = 20
#
# Columns below this comment are as follows:
# 1. Time results were received.
# 2. MD5 hash of participant's IP address.
# 3. Controller name.
# 4. Item number.
# 5. Element number.
# 6. Type.
# 7. Group.
# 8. Field name.
# 9. Field value.
1543609836,b0f826fa19bfd6da0aab0dc431a8cfa2,Form,3,0,consent,NULL,,yes
1543609836,b0f826fa19bfd6da0aab0dc431a8cfa2,Form,3,0,consent,NULL,_REACTION_TIME_,3841
1543609836,b0f826fa19bfd6da0aab0dc431a8cfa2,Form,4,0,instructions,NULL,_REACTION_TIME_,3598
1543609836,b0f826fa19bfd6da0aab0dc431a8cfa2,Form,5,0,story,9,_REACTION_TIME_,14105
# Columns below this comment are as follows:
# 1. Time results were received.
# 2. MD5 hash of participant's IP address.
# 3. Controller name.
# 4. Item number.
# 5. Element number.
# 6. Type.
# 7. Group.
# 8. Question (NULL if none).
# 9. Answer.
# 10. Whether or not answer was correct (NULL if N/A).
# 11. Time taken to answer.
1543609836,b0f826fa19bfd6da0aab0dc431a8cfa2,Question,5,1,story,9,What's in the box%2C according to Mary?,a bomb,1,3303
1543609836,b0f826fa19bfd6da0aab0dc431a8cfa2,Question,5,2,story,9,What was really in the box?,a pillow,0,1448
1543609836,b0f826fa19bfd6da0aab0dc431a8cfa2,Question,5,3,story,9,Was Mary right about that?,no,1,1945
1543609836,b0f826fa19bfd6da0aab0dc431a8cfa2,Question,7,0,politics,NULL,How worried are you about taxpayer money being wasted?,not at all worried,NULL,1738
1543609836,b0f826fa19bfd6da0aab0dc431a8cfa2,Question,6,0,politics,NULL,How worried are you about bombs being sent to government officials?,very worried,NULL,2036
# Columns below this comment are as follows:
# 1. Time results were received.
# 2. MD5 hash of participant's IP address.
# 3. Controller name.
# 4. Item number.
# 5. Element number.
# 6. Type.
# 7. Group.
# 8. Field name.
# 9. Field value.
1543609836,b0f826fa19bfd6da0aab0dc431a8cfa2,Form,8,0,subj_info,NULL,year,1985
1543609836,b0f826fa19bfd6da0aab0dc431a8cfa2,Form,8,0,subj_info,NULL,language,english
1543609836,b0f826fa19bfd6da0aab0dc431a8cfa2,Form,8,0,subj_info,NULL,idturk,AOHLJ70JAIZTB
1543609836,b0f826fa19bfd6da0aab0dc431a8cfa2,Form,8,0,subj_info,NULL,comment,
1543609836,b0f826fa19bfd6da0aab0dc431a8cfa2,Form,8,0,subj_info,NULL,sex,female
1543609836,b0f826fa19bfd6da0aab0dc431a8cfa2,Form,8,0,subj_info,NULL,politics,democrat
1543609836,b0f826fa19bfd6da0aab0dc431a8cfa2,Form,8,0,subj_info,NULL,_REACTION_TIME_,20320
#
# Results on Friday November 30 2018 20:32:13 UTC.
# USER AGENT: Mozilla/5.0 (Windows NT 6.1; WOW64; Trident/7.0; rv:11.0) like Gecko
# Design number was non-random = 21
#
# Columns below this comment are as follows:
# 1. Time results were received.
# 2. MD5 hash of participant's IP address.
# 3. Controller name.
# 4. Item number.
# 5. Element number.
# 6. Type.
# 7. Group.
# 8. Field name.
# 9. Field value.
1543609934,a707596aea55ddfe4955cea8baa244d7,Form,3,0,consent,NULL,,yes
1543609934,a707596aea55ddfe4955cea8baa244d7,Form,3,0,consent,NULL,_REACTION_TIME_,7092
1543609934,a707596aea55ddfe4955cea8baa244d7,Form,4,0,instructions,NULL,_REACTION_TIME_,3515
1543609934,a707596aea55ddfe4955cea8baa244d7,Form,5,0,story,9,_REACTION_TIME_,24362
# Columns below this comment are as follows:
# 1. Time results were received.
# 2. MD5 hash of participant's IP address.
# 3. Controller name.
# 4. Item number.
# 5. Element number.
# 6. Type.
# 7. Group.
# 8. Question (NULL if none).
# 9. Answer.
# 10. Whether or not answer was correct (NULL if N/A).
# 11. Time taken to answer.
1543609934,a707596aea55ddfe4955cea8baa244d7,Question,5,1,story,9,What's in the box%2C according to Mary?,a bomb,1,3831
1543609934,a707596aea55ddfe4955cea8baa244d7,Question,5,2,story,9,What was really in the box?,a pillow,0,2186
1543609934,a707596aea55ddfe4955cea8baa244d7,Question,5,3,story,9,Was Mary right about that?,no,1,2347
1543609934,a707596aea55ddfe4955cea8baa244d7,Question,6,0,politics,NULL,How worried are you about bombs being sent to government officials?,very worried,NULL,6123
1543609934,a707596aea55ddfe4955cea8baa244d7,Question,7,0,politics,NULL,How worried are you about taxpayer money being wasted?,very worried,NULL,3331
# Columns below this comment are as follows:
# 1. Time results were received.
# 2. MD5 hash of participant's IP address.
# 3. Controller name.
# 4. Item number.
# 5. Element number.
# 6. Type.
# 7. Group.
# 8. Field name.
# 9. Field value.
1543609934,a707596aea55ddfe4955cea8baa244d7,Form,8,0,subj_info,NULL,year,1989
1543609934,a707596aea55ddfe4955cea8baa244d7,Form,8,0,subj_info,NULL,language,English
1543609934,a707596aea55ddfe4955cea8baa244d7,Form,8,0,subj_info,NULL,idturk,A2Z6UFJTA5QAH1
1543609934,a707596aea55ddfe4955cea8baa244d7,Form,8,0,subj_info,NULL,comment,
1543609934,a707596aea55ddfe4955cea8baa244d7,Form,8,0,subj_info,NULL,sex,female
1543609934,a707596aea55ddfe4955cea8baa244d7,Form,8,0,subj_info,NULL,politics,republican
1543609934,a707596aea55ddfe4955cea8baa244d7,Form,8,0,subj_info,NULL,_REACTION_TIME_,26185
#
# Results on Friday November 30 2018 20:33:14 UTC.
# USER AGENT: Mozilla/5.0 (Windows NT 10.0; WOW64; Trident/7.0; rv:11.0) like Gecko
# Design number was non-random = 21
#
# Columns below this comment are as follows:
# 1. Time results were received.
# 2. MD5 hash of participant's IP address.
# 3. Controller name.
# 4. Item number.
# 5. Element number.
# 6. Type.
# 7. Group.
# 8. Field name.
# 9. Field value.
1543609994,7cbb63649f0158dccf2d4dba201a1162,Form,3,0,consent,NULL,,yes
1543609994,7cbb63649f0158dccf2d4dba201a1162,Form,3,0,consent,NULL,_REACTION_TIME_,27481
1543609994,7cbb63649f0158dccf2d4dba201a1162,Form,4,0,instructions,NULL,_REACTION_TIME_,2669
1543609994,7cbb63649f0158dccf2d4dba201a1162,Form,5,0,story,9,_REACTION_TIME_,9681
# Columns below this comment are as follows:
# 1. Time results were received.
# 2. MD5 hash of participant's IP address.
# 3. Controller name.
# 4. Item number.
# 5. Element number.
# 6. Type.
# 7. Group.
# 8. Question (NULL if none).
# 9. Answer.
# 10. Whether or not answer was correct (NULL if N/A).
# 11. Time taken to answer.
1543609994,7cbb63649f0158dccf2d4dba201a1162,Question,5,1,story,9,What's in the box%2C according to Mary?,a bomb,1,3492
1543609994,7cbb63649f0158dccf2d4dba201a1162,Question,5,2,story,9,What was really in the box?,a pillow,0,5369
1543609994,7cbb63649f0158dccf2d4dba201a1162,Question,5,3,story,9,Was Mary right about that?,no,1,2177
1543609994,7cbb63649f0158dccf2d4dba201a1162,Question,7,0,politics,NULL,How worried are you about taxpayer money being wasted?,very worried,NULL,13183
1543609994,7cbb63649f0158dccf2d4dba201a1162,Question,6,0,politics,NULL,How worried are you about bombs being sent to government officials?,very worried,NULL,3093
# Columns below this comment are as follows:
# 1. Time results were received.
# 2. MD5 hash of participant's IP address.
# 3. Controller name.
# 4. Item number.
# 5. Element number.
# 6. Type.
# 7. Group.
# 8. Field name.
# 9. Field value.
1543609994,7cbb63649f0158dccf2d4dba201a1162,Form,8,0,subj_info,NULL,year,1954
1543609994,7cbb63649f0158dccf2d4dba201a1162,Form,8,0,subj_info,NULL,language,english
1543609994,7cbb63649f0158dccf2d4dba201a1162,Form,8,0,subj_info,NULL,idturk,A13FTIHWW9GE8X
1543609994,7cbb63649f0158dccf2d4dba201a1162,Form,8,0,subj_info,NULL,comment,none
1543609994,7cbb63649f0158dccf2d4dba201a1162,Form,8,0,subj_info,NULL,sex,female
1543609994,7cbb63649f0158dccf2d4dba201a1162,Form,8,0,subj_info,NULL,politics,other
1543609994,7cbb63649f0158dccf2d4dba201a1162,Form,8,0,subj_info,NULL,_REACTION_TIME_,31151
#
# Results on Friday November 30 2018 20:34:21 UTC.
# USER AGENT: Mozilla/5.0 (Macintosh; Intel Mac OS X 10_14_1) AppleWebKit/537.36 (KHTML, like Gecko) Chrome/70.0.3538.110 Safari/537.36
# Design number was non-random = 23
#
# Columns below this comment are as follows:
# 1. Time results were received.
# 2. MD5 hash of participant's IP address.
# 3. Controller name.
# 4. Item number.
# 5. Element number.
# 6. Type.
# 7. Group.
# 8. Field name.
# 9. Field value.
1543610062,8a10c480775d71b158ae667b21fc3f66,Form,3,0,consent,NULL,,yes
1543610062,8a10c480775d71b158ae667b21fc3f66,Form,3,0,consent,NULL,_REACTION_TIME_,4122
1543610062,8a10c480775d71b158ae667b21fc3f66,Form,4,0,instructions,NULL,_REACTION_TIME_,1421
1543610062,8a10c480775d71b158ae667b21fc3f66,Form,5,0,story,9,_REACTION_TIME_,4495
# Columns below this comment are as follows:
# 1. Time results were received.
# 2. MD5 hash of participant's IP address.
# 3. Controller name.
# 4. Item number.
# 5. Element number.
# 6. Type.
# 7. Group.
# 8. Question (NULL if none).
# 9. Answer.
# 10. Whether or not answer was correct (NULL if N/A).
# 11. Time taken to answer.
1543610062,8a10c480775d71b158ae667b21fc3f66,Question,5,1,story,9,What's in the box%2C according to Mary?,a bomb,1,4749
1543610062,8a10c480775d71b158ae667b21fc3f66,Question,5,2,story,9,What was really in the box?,a pillow,0,1716
1543610062,8a10c480775d71b158ae667b21fc3f66,Question,5,3,story,9,Was Mary right about that?,no,1,1452
1543610062,8a10c480775d71b158ae667b21fc3f66,Question,6,0,politics,NULL,How worried are you about bombs being sent to government officials?,a little worried,NULL,2973
1543610062,8a10c480775d71b158ae667b21fc3f66,Question,7,0,politics,NULL,How worried are you about taxpayer money being wasted?,a little worried,NULL,1550
# Columns below this comment are as follows:
# 1. Time results were received.
# 2. MD5 hash of participant's IP address.
# 3. Controller name.
# 4. Item number.
# 5. Element number.
# 6. Type.
# 7. Group.
# 8. Field name.
# 9. Field value.
1543610062,8a10c480775d71b158ae667b21fc3f66,Form,8,0,subj_info,NULL,year,1988
1543610062,8a10c480775d71b158ae667b21fc3f66,Form,8,0,subj_info,NULL,language,English
1543610062,8a10c480775d71b158ae667b21fc3f66,Form,8,0,subj_info,NULL,idturk,A2G6PVTS2DHBJJ
1543610062,8a10c480775d71b158ae667b21fc3f66,Form,8,0,subj_info,NULL,comment,
1543610062,8a10c480775d71b158ae667b21fc3f66,Form,8,0,subj_info,NULL,sex,female
1543610062,8a10c480775d71b158ae667b21fc3f66,Form,8,0,subj_info,NULL,politics,democrat
1543610062,8a10c480775d71b158ae667b21fc3f66,Form,8,0,subj_info,NULL,_REACTION_TIME_,12421
#
# Results on Friday November 30 2018 20:36:15 UTC.
# USER AGENT: Mozilla/5.0 (Macintosh; Intel Mac OS X 10_14_1) AppleWebKit/605.1.15 (KHTML, like Gecko) Version/12.0.1 Safari/605.1.15
# Design number was non-random = 24
#
# Columns below this comment are as follows:
# 1. Time results were received.
# 2. MD5 hash of participant's IP address.
# 3. Controller name.
# 4. Item number.
# 5. Element number.
# 6. Type.
# 7. Group.
# 8. Field name.
# 9. Field value.
1543610176,3b41fca2fbe7f8b855f3e2d657a398b0,Form,3,0,consent,NULL,,yes
1543610176,3b41fca2fbe7f8b855f3e2d657a398b0,Form,3,0,consent,NULL,_REACTION_TIME_,2299
1543610176,3b41fca2fbe7f8b855f3e2d657a398b0,Form,4,0,instructions,NULL,_REACTION_TIME_,1885
1543610176,3b41fca2fbe7f8b855f3e2d657a398b0,Form,5,0,story,9,_REACTION_TIME_,11396
# Columns below this comment are as follows:
# 1. Time results were received.
# 2. MD5 hash of participant's IP address.
# 3. Controller name.
# 4. Item number.
# 5. Element number.
# 6. Type.
# 7. Group.
# 8. Question (NULL if none).
# 9. Answer.
# 10. Whether or not answer was correct (NULL if N/A).
# 11. Time taken to answer.
1543610176,3b41fca2fbe7f8b855f3e2d657a398b0,Question,5,1,story,9,What's in the box%2C according to Mary?,a pillow,0,2323
1543610176,3b41fca2fbe7f8b855f3e2d657a398b0,Question,5,2,story,9,What was really in the box?,a pillow,0,8221
1543610176,3b41fca2fbe7f8b855f3e2d657a398b0,Question,5,3,story,9,Was Mary right about that?,no,1,3790
1543610176,3b41fca2fbe7f8b855f3e2d657a398b0,Question,7,0,politics,NULL,How worried are you about taxpayer money being wasted?,not at all worried,NULL,2912
1543610176,3b41fca2fbe7f8b855f3e2d657a398b0,Question,6,0,politics,NULL,How worried are you about bombs being sent to government officials?,a little worried,NULL,2080
# Columns below this comment are as follows:
# 1. Time results were received.
# 2. MD5 hash of participant's IP address.
# 3. Controller name.
# 4. Item number.
# 5. Element number.
# 6. Type.
# 7. Group.
# 8. Field name.
# 9. Field value.
1543610176,3b41fca2fbe7f8b855f3e2d657a398b0,Form,8,0,subj_info,NULL,year,1991
1543610176,3b41fca2fbe7f8b855f3e2d657a398b0,Form,8,0,subj_info,NULL,language,English
1543610176,3b41fca2fbe7f8b855f3e2d657a398b0,Form,8,0,subj_info,NULL,idturk,A2MK7JYJLKWSIH
1543610176,3b41fca2fbe7f8b855f3e2d657a398b0,Form,8,0,subj_info,NULL,comment,
1543610176,3b41fca2fbe7f8b855f3e2d657a398b0,Form,8,0,subj_info,NULL,sex,female
1543610176,3b41fca2fbe7f8b855f3e2d657a398b0,Form,8,0,subj_info,NULL,politics,democrat
1543610176,3b41fca2fbe7f8b855f3e2d657a398b0,Form,8,0,subj_info,NULL,_REACTION_TIME_,16569
#
# Results on Friday November 30 2018 20:38:09 UTC.
# USER AGENT: Mozilla/5.0 (Windows NT 10.0; Win64; x64) AppleWebKit/537.36 (KHTML, like Gecko) Chrome/70.0.3538.102 Safari/537.36
# Design number was non-random = 25
#
# Columns below this comment are as follows:
# 1. Time results were received.
# 2. MD5 hash of participant's IP address.
# 3. Controller name.
# 4. Item number.
# 5. Element number.
# 6. Type.
# 7. Group.
# 8. Field name.
# 9. Field value.
1543610289,49a55a9542b467f00c0eb63a758664e5,Form,3,0,consent,NULL,,yes
1543610289,49a55a9542b467f00c0eb63a758664e5,Form,3,0,consent,NULL,_REACTION_TIME_,6137
1543610289,49a55a9542b467f00c0eb63a758664e5,Form,4,0,instructions,NULL,_REACTION_TIME_,3909
1543610289,49a55a9542b467f00c0eb63a758664e5,Form,5,0,story,9,_REACTION_TIME_,2142
# Columns below this comment are as follows:
# 1. Time results were received.
# 2. MD5 hash of participant's IP address.
# 3. Controller name.
# 4. Item number.
# 5. Element number.
# 6. Type.
# 7. Group.
# 8. Question (NULL if none).
# 9. Answer.
# 10. Whether or not answer was correct (NULL if N/A).
# 11. Time taken to answer.
1543610289,49a55a9542b467f00c0eb63a758664e5,Question,5,1,story,9,What's in the box%2C according to Mary?,a pillow,0,1984
1543610289,49a55a9542b467f00c0eb63a758664e5,Question,5,2,story,9,What was really in the box?,a bomb,1,1022
1543610289,49a55a9542b467f00c0eb63a758664e5,Question,5,3,story,9,Was Mary right about that?,no,1,1640
1543610289,49a55a9542b467f00c0eb63a758664e5,Question,7,0,politics,NULL,How worried are you about taxpayer money being wasted?,a little worried,NULL,800
1543610289,49a55a9542b467f00c0eb63a758664e5,Question,6,0,politics,NULL,How worried are you about bombs being sent to government officials?,a little worried,NULL,931
# Columns below this comment are as follows:
# 1. Time results were received.
# 2. MD5 hash of participant's IP address.
# 3. Controller name.
# 4. Item number.
# 5. Element number.
# 6. Type.
# 7. Group.
# 8. Field name.
# 9. Field value.
1543610289,49a55a9542b467f00c0eb63a758664e5,Form,8,0,subj_info,NULL,year,1986
1543610289,49a55a9542b467f00c0eb63a758664e5,Form,8,0,subj_info,NULL,language,ENGLISH
1543610289,49a55a9542b467f00c0eb63a758664e5,Form,8,0,subj_info,NULL,idturk,A2PYZDFLMB8RN6
1543610289,49a55a9542b467f00c0eb63a758664e5,Form,8,0,subj_info,NULL,comment,
1543610289,49a55a9542b467f00c0eb63a758664e5,Form,8,0,subj_info,NULL,sex,female
1543610289,49a55a9542b467f00c0eb63a758664e5,Form,8,0,subj_info,NULL,politics,democrat
1543610289,49a55a9542b467f00c0eb63a758664e5,Form,8,0,subj_info,NULL,_REACTION_TIME_,30276
#
# Results on Friday November 30 2018 20:41:51 UTC.
# USER AGENT: Mozilla/5.0 (Windows NT 10.0; Win64; x64) AppleWebKit/537.36 (KHTML, like Gecko) Chrome/70.0.3538.110 Safari/537.36
# Design number was non-random = 26
#
# Columns below this comment are as follows:
# 1. Time results were received.
# 2. MD5 hash of participant's IP address.
# 3. Controller name.
# 4. Item number.
# 5. Element number.
# 6. Type.
# 7. Group.
# 8. Field name.
# 9. Field value.
1543610511,eadf92096a6b7bf4733006df3d464735,Form,3,0,consent,NULL,,yes
1543610511,eadf92096a6b7bf4733006df3d464735,Form,3,0,consent,NULL,_REACTION_TIME_,38795
1543610511,eadf92096a6b7bf4733006df3d464735,Form,4,0,instructions,NULL,_REACTION_TIME_,1235
1543610511,eadf92096a6b7bf4733006df3d464735,Form,5,0,story,9,_REACTION_TIME_,21427
# Columns below this comment are as follows:
# 1. Time results were received.
# 2. MD5 hash of participant's IP address.
# 3. Controller name.
# 4. Item number.
# 5. Element number.
# 6. Type.
# 7. Group.
# 8. Question (NULL if none).
# 9. Answer.
# 10. Whether or not answer was correct (NULL if N/A).
# 11. Time taken to answer.
1543610511,eadf92096a6b7bf4733006df3d464735,Question,5,1,story,9,What's in the box%2C according to Mary?,a bomb,1,2552
1543610511,eadf92096a6b7bf4733006df3d464735,Question,5,2,story,9,What was really in the box?,a pillow,0,2495
1543610511,eadf92096a6b7bf4733006df3d464735,Question,5,3,story,9,Was Mary right about that?,no,1,3013
1543610511,eadf92096a6b7bf4733006df3d464735,Question,6,0,politics,NULL,How worried are you about bombs being sent to government officials?,very worried,NULL,4254
1543610511,eadf92096a6b7bf4733006df3d464735,Question,7,0,politics,NULL,How worried are you about taxpayer money being wasted?,very worried,NULL,1988
# Columns below this comment are as follows:
# 1. Time results were received.
# 2. MD5 hash of participant's IP address.
# 3. Controller name.
# 4. Item number.
# 5. Element number.
# 6. Type.
# 7. Group.
# 8. Field name.
# 9. Field value.
1543610511,eadf92096a6b7bf4733006df3d464735,Form,8,0,subj_info,NULL,year,1992
1543610511,eadf92096a6b7bf4733006df3d464735,Form,8,0,subj_info,NULL,language,English
1543610511,eadf92096a6b7bf4733006df3d464735,Form,8,0,subj_info,NULL,idturk,A2B1YSMEHN1G2K
1543610511,eadf92096a6b7bf4733006df3d464735,Form,8,0,subj_info,NULL,comment,I think I may have understood the questions about the story backwards%2C not sure. Thank you for the opportunity to participate.
1543610511,eadf92096a6b7bf4733006df3d464735,Form,8,0,subj_info,NULL,sex,female
1543610511,eadf92096a6b7bf4733006df3d464735,Form,8,0,subj_info,NULL,politics,other
1543610511,eadf92096a6b7bf4733006df3d464735,Form,8,0,subj_info,NULL,_REACTION_TIME_,57735
#
# Results on Friday November 30 2018 20:43:55 UTC.
# USER AGENT: Mozilla/5.0 (Windows NT 10.0; Win64; x64) AppleWebKit/537.36 (KHTML, like Gecko) Chrome/70.0.3538.110 Safari/537.36
# Design number was non-random = 27
#
# Columns below this comment are as follows:
# 1. Time results were received.
# 2. MD5 hash of participant's IP address.
# 3. Controller name.
# 4. Item number.
# 5. Element number.
# 6. Type.
# 7. Group.
# 8. Field name.
# 9. Field value.
1543610635,20c25cc175f3de40d63470fc75a08a0f,Form,3,0,consent,NULL,,yes
1543610635,20c25cc175f3de40d63470fc75a08a0f,Form,3,0,consent,NULL,_REACTION_TIME_,22508
1543610635,20c25cc175f3de40d63470fc75a08a0f,Form,4,0,instructions,NULL,_REACTION_TIME_,4372
1543610635,20c25cc175f3de40d63470fc75a08a0f,Form,5,0,story,9,_REACTION_TIME_,22862
# Columns below this comment are as follows:
# 1. Time results were received.
# 2. MD5 hash of participant's IP address.
# 3. Controller name.
# 4. Item number.
# 5. Element number.
# 6. Type.
# 7. Group.
# 8. Question (NULL if none).
# 9. Answer.
# 10. Whether or not answer was correct (NULL if N/A).
# 11. Time taken to answer.
1543610635,20c25cc175f3de40d63470fc75a08a0f,Question,5,1,story,9,What's in the box%2C according to Mary?,a bomb,1,4261
1543610635,20c25cc175f3de40d63470fc75a08a0f,Question,5,2,story,9,What was really in the box?,a pillow,0,1790
1543610635,20c25cc175f3de40d63470fc75a08a0f,Question,5,3,story,9,Was Mary right about that?,no,1,2866
1543610635,20c25cc175f3de40d63470fc75a08a0f,Question,6,0,politics,NULL,How worried are you about bombs being sent to government officials?,not at all worried,NULL,4663
1543610635,20c25cc175f3de40d63470fc75a08a0f,Question,7,0,politics,NULL,How worried are you about taxpayer money being wasted?,very worried,NULL,3631
# Columns below this comment are as follows:
# 1. Time results were received.
# 2. MD5 hash of participant's IP address.
# 3. Controller name.
# 4. Item number.
# 5. Element number.
# 6. Type.
# 7. Group.
# 8. Field name.
# 9. Field value.
1543610635,20c25cc175f3de40d63470fc75a08a0f,Form,8,0,subj_info,NULL,year,1985
1543610635,20c25cc175f3de40d63470fc75a08a0f,Form,8,0,subj_info,NULL,language,English
1543610635,20c25cc175f3de40d63470fc75a08a0f,Form,8,0,subj_info,NULL,idturk,A23S3TBFRILU5H
1543610635,20c25cc175f3de40d63470fc75a08a0f,Form,8,0,subj_info,NULL,comment,Thank you.
1543610635,20c25cc175f3de40d63470fc75a08a0f,Form,8,0,subj_info,NULL,sex,female
1543610635,20c25cc175f3de40d63470fc75a08a0f,Form,8,0,subj_info,NULL,politics,other
1543610635,20c25cc175f3de40d63470fc75a08a0f,Form,8,0,subj_info,NULL,_REACTION_TIME_,21238
#
# Results on Friday November 30 2018 20:46:21 UTC.
# USER AGENT: Mozilla/5.0 (Windows NT 10.0; Win64; x64) AppleWebKit/537.36 (KHTML, like Gecko) Chrome/64.0.3282.140 Safari/537.36 Edge/17.17134
# Design number was non-random = 28
#
# Columns below this comment are as follows:
# 1. Time results were received.
# 2. MD5 hash of participant's IP address.
# 3. Controller name.
# 4. Item number.
# 5. Element number.
# 6. Type.
# 7. Group.
# 8. Field name.
# 9. Field value.
1543610781,fa8fd473a9045bd9600bf18f6dcb8890,Form,3,0,consent,NULL,,yes
1543610781,fa8fd473a9045bd9600bf18f6dcb8890,Form,3,0,consent,NULL,_REACTION_TIME_,5655
1543610781,fa8fd473a9045bd9600bf18f6dcb8890,Form,4,0,instructions,NULL,_REACTION_TIME_,2766
1543610781,fa8fd473a9045bd9600bf18f6dcb8890,Form,5,0,story,9,_REACTION_TIME_,19396
# Columns below this comment are as follows:
# 1. Time results were received.
# 2. MD5 hash of participant's IP address.
# 3. Controller name.
# 4. Item number.
# 5. Element number.
# 6. Type.
# 7. Group.
# 8. Question (NULL if none).
# 9. Answer.
# 10. Whether or not answer was correct (NULL if N/A).
# 11. Time taken to answer.
1543610781,fa8fd473a9045bd9600bf18f6dcb8890,Question,5,1,story,9,What's in the box%2C according to Mary?,a bomb,1,3709
1543610781,fa8fd473a9045bd9600bf18f6dcb8890,Question,5,2,story,9,What was really in the box?,a pillow,0,1890
1543610781,fa8fd473a9045bd9600bf18f6dcb8890,Question,5,3,story,9,Was Mary right about that?,no,1,2147
1543610781,fa8fd473a9045bd9600bf18f6dcb8890,Question,7,0,politics,NULL,How worried are you about taxpayer money being wasted?,not at all worried,NULL,4451
1543610781,fa8fd473a9045bd9600bf18f6dcb8890,Question,6,0,politics,NULL,How worried are you about bombs being sent to government officials?,very worried,NULL,2974
# Columns below this comment are as follows:
# 1. Time results were received.
# 2. MD5 hash of participant's IP address.
# 3. Controller name.
# 4. Item number.
# 5. Element number.
# 6. Type.
# 7. Group.
# 8. Field name.
# 9. Field value.
1543610781,fa8fd473a9045bd9600bf18f6dcb8890,Form,8,0,subj_info,NULL,year,1992
1543610781,fa8fd473a9045bd9600bf18f6dcb8890,Form,8,0,subj_info,NULL,language,English
1543610781,fa8fd473a9045bd9600bf18f6dcb8890,Form,8,0,subj_info,NULL,idturk,A3LEGBJEWR7CJ1
1543610781,fa8fd473a9045bd9600bf18f6dcb8890,Form,8,0,subj_info,NULL,comment,I don't think that this would be much of a waste of taxpayer dollars to settle the worry of a woman suspecting she received a bomb. If it were such a waste of money%2C the task should have been performed in a more fiscally responsible manner.
1543610781,fa8fd473a9045bd9600bf18f6dcb8890,Form,8,0,subj_info,NULL,sex,male
1543610781,fa8fd473a9045bd9600bf18f6dcb8890,Form,8,0,subj_info,NULL,politics,republican
1543610781,fa8fd473a9045bd9600bf18f6dcb8890,Form,8,0,subj_info,NULL,_REACTION_TIME_,70241
#
# Results on Friday November 30 2018 20:47:37 UTC.
# USER AGENT: Mozilla/5.0 (Windows NT 10.0; Win64; x64) AppleWebKit/537.36 (KHTML, like Gecko) Chrome/64.0.3282.140 Safari/537.36 Edge/17.17134
# Design number was non-random = 28
#
# Columns below this comment are as follows:
# 1. Time results were received.
# 2. MD5 hash of participant's IP address.
# 3. Controller name.
# 4. Item number.
# 5. Element number.
# 6. Type.
# 7. Group.
# 8. Field name.
# 9. Field value.
1543610858,b2b0b3b6e3f4c28526e4612636f7ff37,Form,3,0,consent,NULL,,yes
1543610858,b2b0b3b6e3f4c28526e4612636f7ff37,Form,3,0,consent,NULL,_REACTION_TIME_,12042
1543610858,b2b0b3b6e3f4c28526e4612636f7ff37,Form,4,0,instructions,NULL,_REACTION_TIME_,4082
1543610858,b2b0b3b6e3f4c28526e4612636f7ff37,Form,5,0,story,9,_REACTION_TIME_,28332
# Columns below this comment are as follows:
# 1. Time results were received.
# 2. MD5 hash of participant's IP address.
# 3. Controller name.
# 4. Item number.
# 5. Element number.
# 6. Type.
# 7. Group.
# 8. Question (NULL if none).
# 9. Answer.
# 10. Whether or not answer was correct (NULL if N/A).
# 11. Time taken to answer.
1543610858,b2b0b3b6e3f4c28526e4612636f7ff37,Question,5,1,story,9,What's in the box%2C according to Mary?,a bomb,1,3313
1543610858,b2b0b3b6e3f4c28526e4612636f7ff37,Question,5,2,story,9,What was really in the box?,a pillow,0,1737
1543610858,b2b0b3b6e3f4c28526e4612636f7ff37,Question,5,3,story,9,Was Mary right about that?,no,1,2018
1543610858,b2b0b3b6e3f4c28526e4612636f7ff37,Question,7,0,politics,NULL,How worried are you about taxpayer money being wasted?,not at all worried,NULL,3474
1543610858,b2b0b3b6e3f4c28526e4612636f7ff37,Question,6,0,politics,NULL,How worried are you about bombs being sent to government officials?,a little worried,NULL,6007
# Columns below this comment are as follows:
# 1. Time results were received.
# 2. MD5 hash of participant's IP address.
# 3. Controller name.
# 4. Item number.
# 5. Element number.
# 6. Type.
# 7. Group.
# 8. Field name.
# 9. Field value.
1543610858,b2b0b3b6e3f4c28526e4612636f7ff37,Form,8,0,subj_info,NULL,year,1953
1543610858,b2b0b3b6e3f4c28526e4612636f7ff37,Form,8,0,subj_info,NULL,language,English
1543610858,b2b0b3b6e3f4c28526e4612636f7ff37,Form,8,0,subj_info,NULL,idturk,A2X9VV3B0FZKHY
1543610858,b2b0b3b6e3f4c28526e4612636f7ff37,Form,8,0,subj_info,NULL,comment,
1543610858,b2b0b3b6e3f4c28526e4612636f7ff37,Form,8,0,subj_info,NULL,sex,male
1543610858,b2b0b3b6e3f4c28526e4612636f7ff37,Form,8,0,subj_info,NULL,politics,democrat
1543610858,b2b0b3b6e3f4c28526e4612636f7ff37,Form,8,0,subj_info,NULL,_REACTION_TIME_,37408
#
# Results on Friday November 30 2018 20:47:56 UTC.
# USER AGENT: Mozilla/5.0 (Windows NT 6.1; WOW64) AppleWebKit/537.36 (KHTML, like Gecko) Chrome/70.0.3538.110 Safari/537.36
# Design number was non-random = 29
#
# Columns below this comment are as follows:
# 1. Time results were received.
# 2. MD5 hash of participant's IP address.
# 3. Controller name.
# 4. Item number.
# 5. Element number.
# 6. Type.
# 7. Group.
# 8. Field name.
# 9. Field value.
1543610877,3a3f61e3c0a4a095e582fc142d9bf007,Form,3,0,consent,NULL,,yes
1543610877,3a3f61e3c0a4a095e582fc142d9bf007,Form,3,0,consent,NULL,_REACTION_TIME_,2677
1543610877,3a3f61e3c0a4a095e582fc142d9bf007,Form,4,0,instructions,NULL,_REACTION_TIME_,9550
1543610877,3a3f61e3c0a4a095e582fc142d9bf007,Form,5,0,story,9,_REACTION_TIME_,15611
# Columns below this comment are as follows:
# 1. Time results were received.
# 2. MD5 hash of participant's IP address.
# 3. Controller name.
# 4. Item number.
# 5. Element number.
# 6. Type.
# 7. Group.
# 8. Question (NULL if none).
# 9. Answer.
# 10. Whether or not answer was correct (NULL if N/A).
# 11. Time taken to answer.
1543610877,3a3f61e3c0a4a095e582fc142d9bf007,Question,5,1,story,9,What's in the box%2C according to Mary?,a bomb,1,14814
1543610877,3a3f61e3c0a4a095e582fc142d9bf007,Question,5,2,story,9,What was really in the box?,a pillow,0,1758
1543610877,3a3f61e3c0a4a095e582fc142d9bf007,Question,5,3,story,9,Was Mary right about that?,no,1,1638
1543610877,3a3f61e3c0a4a095e582fc142d9bf007,Question,6,0,politics,NULL,How worried are you about bombs being sent to government officials?,a little worried,NULL,2568
1543610877,3a3f61e3c0a4a095e582fc142d9bf007,Question,7,0,politics,NULL,How worried are you about taxpayer money being wasted?,a little worried,NULL,2918
# Columns below this comment are as follows:
# 1. Time results were received.
# 2. MD5 hash of participant's IP address.
# 3. Controller name.
# 4. Item number.
# 5. Element number.
# 6. Type.
# 7. Group.
# 8. Field name.
# 9. Field value.
1543610877,3a3f61e3c0a4a095e582fc142d9bf007,Form,8,0,subj_info,NULL,year,1992
1543610877,3a3f61e3c0a4a095e582fc142d9bf007,Form,8,0,subj_info,NULL,language,english
1543610877,3a3f61e3c0a4a095e582fc142d9bf007,Form,8,0,subj_info,NULL,idturk,A3BOY7SUI425MK
1543610877,3a3f61e3c0a4a095e582fc142d9bf007,Form,8,0,subj_info,NULL,comment,
1543610877,3a3f61e3c0a4a095e582fc142d9bf007,Form,8,0,subj_info,NULL,sex,female
1543610877,3a3f61e3c0a4a095e582fc142d9bf007,Form,8,0,subj_info,NULL,politics,democrat
1543610877,3a3f61e3c0a4a095e582fc142d9bf007,Form,8,0,subj_info,NULL,_REACTION_TIME_,15425
#
# Results on Friday November 30 2018 20:49:22 UTC.
# USER AGENT: Mozilla/5.0 (Windows NT 6.3; Win64; x64; rv:63.0) Gecko/20100101 Firefox/63.0
# Design number was non-random = 31
#
# Columns below this comment are as follows:
# 1. Time results were received.
# 2. MD5 hash of participant's IP address.
# 3. Controller name.
# 4. Item number.
# 5. Element number.
# 6. Type.
# 7. Group.
# 8. Field name.
# 9. Field value.
1543610962,e651723de98ac76888617714d15fc43e,Form,3,0,consent,NULL,,yes
1543610962,e651723de98ac76888617714d15fc43e,Form,3,0,consent,NULL,_REACTION_TIME_,10673
1543610962,e651723de98ac76888617714d15fc43e,Form,4,0,instructions,NULL,_REACTION_TIME_,3912
1543610962,e651723de98ac76888617714d15fc43e,Form,5,0,story,9,_REACTION_TIME_,17354
# Columns below this comment are as follows:
# 1. Time results were received.
# 2. MD5 hash of participant's IP address.
# 3. Controller name.
# 4. Item number.
# 5. Element number.
# 6. Type.
# 7. Group.
# 8. Question (NULL if none).
# 9. Answer.
# 10. Whether or not answer was correct (NULL if N/A).
# 11. Time taken to answer.
1543610962,e651723de98ac76888617714d15fc43e,Question,5,1,story,9,What's in the box%2C according to Mary?,a bomb,1,2744
1543610962,e651723de98ac76888617714d15fc43e,Question,5,2,story,9,What was really in the box?,a pillow,0,1734
1543610962,e651723de98ac76888617714d15fc43e,Question,5,3,story,9,Was Mary right about that?,no,1,2368
1543610962,e651723de98ac76888617714d15fc43e,Question,6,0,politics,NULL,How worried are you about bombs being sent to government officials?,a little worried,NULL,3844
1543610962,e651723de98ac76888617714d15fc43e,Question,7,0,politics,NULL,How worried are you about taxpayer money being wasted?,a little worried,NULL,2752
# Columns below this comment are as follows:
# 1. Time results were received.
# 2. MD5 hash of participant's IP address.
# 3. Controller name.
# 4. Item number.
# 5. Element number.
# 6. Type.
# 7. Group.
# 8. Field name.
# 9. Field value.
1543610962,e651723de98ac76888617714d15fc43e,Form,8,0,subj_info,NULL,year,1967
1543610962,e651723de98ac76888617714d15fc43e,Form,8,0,subj_info,NULL,language,English
1543610962,e651723de98ac76888617714d15fc43e,Form,8,0,subj_info,NULL,idturk,A3I55L67X0MWC4
1543610962,e651723de98ac76888617714d15fc43e,Form,8,0,subj_info,NULL,comment,
1543610962,e651723de98ac76888617714d15fc43e,Form,8,0,subj_info,NULL,sex,female
1543610962,e651723de98ac76888617714d15fc43e,Form,8,0,subj_info,NULL,politics,other
1543610962,e651723de98ac76888617714d15fc43e,Form,8,0,subj_info,NULL,_REACTION_TIME_,29459
#
# Results on Friday November 30 2018 20:50:10 UTC.
# USER AGENT: Mozilla/5.0 (Windows NT 10.0; Win64; x64) AppleWebKit/537.36 (KHTML, like Gecko) Chrome/70.0.3538.110 Safari/537.36
# Design number was non-random = 31
#
# Columns below this comment are as follows:
# 1. Time results were received.
# 2. MD5 hash of participant's IP address.
# 3. Controller name.
# 4. Item number.
# 5. Element number.
# 6. Type.
# 7. Group.
# 8. Field name.
# 9. Field value.
1543611010,dfc09a8be5b5eb70e4d810d38c7c2b98,Form,3,0,consent,NULL,,yes
1543611010,dfc09a8be5b5eb70e4d810d38c7c2b98,Form,3,0,consent,NULL,_REACTION_TIME_,5458
1543611010,dfc09a8be5b5eb70e4d810d38c7c2b98,Form,4,0,instructions,NULL,_REACTION_TIME_,3524
1543611010,dfc09a8be5b5eb70e4d810d38c7c2b98,Form,5,0,story,9,_REACTION_TIME_,20046
# Columns below this comment are as follows:
# 1. Time results were received.
# 2. MD5 hash of participant's IP address.
# 3. Controller name.
# 4. Item number.
# 5. Element number.
# 6. Type.
# 7. Group.
# 8. Question (NULL if none).
# 9. Answer.
# 10. Whether or not answer was correct (NULL if N/A).
# 11. Time taken to answer.
1543611010,dfc09a8be5b5eb70e4d810d38c7c2b98,Question,5,1,story,9,What's in the box%2C according to Mary?,a bomb,1,2871
1543611010,dfc09a8be5b5eb70e4d810d38c7c2b98,Question,5,2,story,9,What was really in the box?,a pillow,0,6250
1543611010,dfc09a8be5b5eb70e4d810d38c7c2b98,Question,5,3,story,9,Was Mary right about that?,no,1,4879
1543611010,dfc09a8be5b5eb70e4d810d38c7c2b98,Question,7,0,politics,NULL,How worried are you about taxpayer money being wasted?,a little worried,NULL,4623
1543611010,dfc09a8be5b5eb70e4d810d38c7c2b98,Question,6,0,politics,NULL,How worried are you about bombs being sent to government officials?,a little worried,NULL,2234
# Columns below this comment are as follows:
# 1. Time results were received.
# 2. MD5 hash of participant's IP address.
# 3. Controller name.
# 4. Item number.
# 5. Element number.
# 6. Type.
# 7. Group.
# 8. Field name.
# 9. Field value.
1543611010,dfc09a8be5b5eb70e4d810d38c7c2b98,Form,8,0,subj_info,NULL,year,1984
1543611010,dfc09a8be5b5eb70e4d810d38c7c2b98,Form,8,0,subj_info,NULL,language,English
1543611010,dfc09a8be5b5eb70e4d810d38c7c2b98,Form,8,0,subj_info,NULL,idturk,A1HMEM6SBVMI2W
1543611010,dfc09a8be5b5eb70e4d810d38c7c2b98,Form,8,0,subj_info,NULL,comment,
1543611010,dfc09a8be5b5eb70e4d810d38c7c2b98,Form,8,0,subj_info,NULL,sex,female
1543611010,dfc09a8be5b5eb70e4d810d38c7c2b98,Form,8,0,subj_info,NULL,politics,republican
1543611010,dfc09a8be5b5eb70e4d810d38c7c2b98,Form,8,0,subj_info,NULL,_REACTION_TIME_,17727
#
# Results on Friday November 30 2018 20:52:22 UTC.
# USER AGENT: Mozilla/5.0 (Macintosh; Intel Mac OS X 10.11; rv:63.0) Gecko/20100101 Firefox/63.0
# Design number was non-random = 33
#
# Columns below this comment are as follows:
# 1. Time results were received.
# 2. MD5 hash of participant's IP address.
# 3. Controller name.
# 4. Item number.
# 5. Element number.
# 6. Type.
# 7. Group.
# 8. Field name.
# 9. Field value.
1543611143,6916843442b48d197c78eb7f75447fce,Form,3,0,consent,NULL,,yes
1543611143,6916843442b48d197c78eb7f75447fce,Form,3,0,consent,NULL,_REACTION_TIME_,18827
1543611143,6916843442b48d197c78eb7f75447fce,Form,4,0,instructions,NULL,_REACTION_TIME_,4010
1543611143,6916843442b48d197c78eb7f75447fce,Form,5,0,story,9,_REACTION_TIME_,18716
# Columns below this comment are as follows:
# 1. Time results were received.
# 2. MD5 hash of participant's IP address.
# 3. Controller name.
# 4. Item number.
# 5. Element number.
# 6. Type.
# 7. Group.
# 8. Question (NULL if none).
# 9. Answer.
# 10. Whether or not answer was correct (NULL if N/A).
# 11. Time taken to answer.
1543611143,6916843442b48d197c78eb7f75447fce,Question,5,1,story,9,What's in the box%2C according to Mary?,a bomb,1,3136
1543611143,6916843442b48d197c78eb7f75447fce,Question,5,2,story,9,What was really in the box?,a pillow,0,2153
1543611143,6916843442b48d197c78eb7f75447fce,Question,5,3,story,9,Was Mary right about that?,no,1,4060
1543611143,6916843442b48d197c78eb7f75447fce,Question,6,0,politics,NULL,How worried are you about bombs being sent to government officials?,a little worried,NULL,5182
1543611143,6916843442b48d197c78eb7f75447fce,Question,7,0,politics,NULL,How worried are you about taxpayer money being wasted?,a little worried,NULL,3393
# Columns below this comment are as follows:
# 1. Time results were received.
# 2. MD5 hash of participant's IP address.
# 3. Controller name.
# 4. Item number.
# 5. Element number.
# 6. Type.
# 7. Group.
# 8. Field name.
# 9. Field value.
1543611143,6916843442b48d197c78eb7f75447fce,Form,8,0,subj_info,NULL,year,1990
1543611143,6916843442b48d197c78eb7f75447fce,Form,8,0,subj_info,NULL,language,english
1543611143,6916843442b48d197c78eb7f75447fce,Form,8,0,subj_info,NULL,idturk,A98PFR8C6QID3
1543611143,6916843442b48d197c78eb7f75447fce,Form,8,0,subj_info,NULL,comment,
1543611143,6916843442b48d197c78eb7f75447fce,Form,8,0,subj_info,NULL,sex,female
1543611143,6916843442b48d197c78eb7f75447fce,Form,8,0,subj_info,NULL,politics,republican
1543611143,6916843442b48d197c78eb7f75447fce,Form,8,0,subj_info,NULL,_REACTION_TIME_,32849
#
# Results on Friday November 30 2018 20:53:50 UTC.
# USER AGENT: Mozilla/5.0 (Windows NT 6.3; Win64; x64) AppleWebKit/537.36 (KHTML, like Gecko) Chrome/70.0.3538.110 Safari/537.36
# Design number was non-random = 34
#
# Columns below this comment are as follows:
# 1. Time results were received.
# 2. MD5 hash of participant's IP address.
# 3. Controller name.
# 4. Item number.
# 5. Element number.
# 6. Type.
# 7. Group.
# 8. Field name.
# 9. Field value.
1543611230,8d174db887cc588e869f3a49a0a52566,Form,3,0,consent,NULL,,yes
1543611230,8d174db887cc588e869f3a49a0a52566,Form,3,0,consent,NULL,_REACTION_TIME_,17520
1543611230,8d174db887cc588e869f3a49a0a52566,Form,4,0,instructions,NULL,_REACTION_TIME_,4325
1543611230,8d174db887cc588e869f3a49a0a52566,Form,5,0,story,9,_REACTION_TIME_,12650
# Columns below this comment are as follows:
# 1. Time results were received.
# 2. MD5 hash of participant's IP address.
# 3. Controller name.
# 4. Item number.
# 5. Element number.
# 6. Type.
# 7. Group.
# 8. Question (NULL if none).
# 9. Answer.
# 10. Whether or not answer was correct (NULL if N/A).
# 11. Time taken to answer.
1543611230,8d174db887cc588e869f3a49a0a52566,Question,5,1,story,9,What's in the box%2C according to Mary?,a bomb,1,2781
1543611230,8d174db887cc588e869f3a49a0a52566,Question,5,2,story,9,What was really in the box?,a pillow,0,1756
1543611230,8d174db887cc588e869f3a49a0a52566,Question,5,3,story,9,Was Mary right about that?,no,1,2695
1543611230,8d174db887cc588e869f3a49a0a52566,Question,7,0,politics,NULL,How worried are you about taxpayer money being wasted?,not at all worried,NULL,2687
1543611230,8d174db887cc588e869f3a49a0a52566,Question,6,0,politics,NULL,How worried are you about bombs being sent to government officials?,a little worried,NULL,2147
# Columns below this comment are as follows:
# 1. Time results were received.
# 2. MD5 hash of participant's IP address.
# 3. Controller name.
# 4. Item number.
# 5. Element number.
# 6. Type.
# 7. Group.
# 8. Field name.
# 9. Field value.
1543611230,8d174db887cc588e869f3a49a0a52566,Form,8,0,subj_info,NULL,year,1967
1543611230,8d174db887cc588e869f3a49a0a52566,Form,8,0,subj_info,NULL,language,english
1543611230,8d174db887cc588e869f3a49a0a52566,Form,8,0,subj_info,NULL,idturk,A49A0FF6ZXYDU
1543611230,8d174db887cc588e869f3a49a0a52566,Form,8,0,subj_info,NULL,comment,none
1543611230,8d174db887cc588e869f3a49a0a52566,Form,8,0,subj_info,NULL,sex,female
1543611230,8d174db887cc588e869f3a49a0a52566,Form,8,0,subj_info,NULL,politics,other
1543611230,8d174db887cc588e869f3a49a0a52566,Form,8,0,subj_info,NULL,_REACTION_TIME_,36313
#
# Results on Friday November 30 2018 21:01:05 UTC.
# USER AGENT: Mozilla/5.0 (Windows NT 6.1; Win64; x64) AppleWebKit/537.36 (KHTML, like Gecko) Chrome/70.0.3538.110 Safari/537.36
# Design number was non-random = 35
#
# Columns below this comment are as follows:
# 1. Time results were received.
# 2. MD5 hash of participant's IP address.
# 3. Controller name.
# 4. Item number.
# 5. Element number.
# 6. Type.
# 7. Group.
# 8. Field name.
# 9. Field value.
1543611665,a98bccc4953210f573a9323fe3ba8825,Form,3,0,consent,NULL,,yes
1543611665,a98bccc4953210f573a9323fe3ba8825,Form,3,0,consent,NULL,_REACTION_TIME_,15183
1543611665,a98bccc4953210f573a9323fe3ba8825,Form,4,0,instructions,NULL,_REACTION_TIME_,3828
1543611665,a98bccc4953210f573a9323fe3ba8825,Form,5,0,story,9,_REACTION_TIME_,26451
# Columns below this comment are as follows:
# 1. Time results were received.
# 2. MD5 hash of participant's IP address.
# 3. Controller name.
# 4. Item number.
# 5. Element number.
# 6. Type.
# 7. Group.
# 8. Question (NULL if none).
# 9. Answer.
# 10. Whether or not answer was correct (NULL if N/A).
# 11. Time taken to answer.
1543611665,a98bccc4953210f573a9323fe3ba8825,Question,5,1,story,9,What's in the box%2C according to Mary?,a bomb,1,6352
1543611665,a98bccc4953210f573a9323fe3ba8825,Question,5,2,story,9,What was really in the box?,a pillow,0,2428
1543611665,a98bccc4953210f573a9323fe3ba8825,Question,5,3,story,9,Was Mary right about that?,no,1,2202
1543611665,a98bccc4953210f573a9323fe3ba8825,Question,6,0,politics,NULL,How worried are you about bombs being sent to government officials?,a little worried,NULL,3230
1543611665,a98bccc4953210f573a9323fe3ba8825,Question,7,0,politics,NULL,How worried are you about taxpayer money being wasted?,a little worried,NULL,6669
# Columns below this comment are as follows:
# 1. Time results were received.
# 2. MD5 hash of participant's IP address.
# 3. Controller name.
# 4. Item number.
# 5. Element number.
# 6. Type.
# 7. Group.
# 8. Field name.
# 9. Field value.
1543611665,a98bccc4953210f573a9323fe3ba8825,Form,8,0,subj_info,NULL,year,1971
1543611665,a98bccc4953210f573a9323fe3ba8825,Form,8,0,subj_info,NULL,language,English
1543611665,a98bccc4953210f573a9323fe3ba8825,Form,8,0,subj_info,NULL,idturk,A2DDOEOO1D99X4
1543611665,a98bccc4953210f573a9323fe3ba8825,Form,8,0,subj_info,NULL,comment,
1543611665,a98bccc4953210f573a9323fe3ba8825,Form,8,0,subj_info,NULL,sex,female
1543611665,a98bccc4953210f573a9323fe3ba8825,Form,8,0,subj_info,NULL,politics,democrat
1543611665,a98bccc4953210f573a9323fe3ba8825,Form,8,0,subj_info,NULL,_REACTION_TIME_,32220
#
# Results on Friday November 30 2018 21:03:43 UTC.
# USER AGENT: Mozilla/5.0 (Windows NT 10.0) AppleWebKit/537.36 (KHTML, like Gecko) Chrome/70.0.3538.110 Safari/537.36
# Design number was non-random = 36
#
# Columns below this comment are as follows:
# 1. Time results were received.
# 2. MD5 hash of participant's IP address.
# 3. Controller name.
# 4. Item number.
# 5. Element number.
# 6. Type.
# 7. Group.
# 8. Field name.
# 9. Field value.
1543611824,db8c26aad9ff07d37a7f2c81e6890bb8,Form,3,0,consent,NULL,,yes
1543611824,db8c26aad9ff07d37a7f2c81e6890bb8,Form,3,0,consent,NULL,_REACTION_TIME_,4606
1543611824,db8c26aad9ff07d37a7f2c81e6890bb8,Form,4,0,instructions,NULL,_REACTION_TIME_,3529
1543611824,db8c26aad9ff07d37a7f2c81e6890bb8,Form,5,0,story,9,_REACTION_TIME_,23502
# Columns below this comment are as follows:
# 1. Time results were received.
# 2. MD5 hash of participant's IP address.
# 3. Controller name.
# 4. Item number.
# 5. Element number.
# 6. Type.
# 7. Group.
# 8. Question (NULL if none).
# 9. Answer.
# 10. Whether or not answer was correct (NULL if N/A).
# 11. Time taken to answer.
1543611824,db8c26aad9ff07d37a7f2c81e6890bb8,Question,5,1,story,9,What's in the box%2C according to Mary?,a bomb,1,2524
1543611824,db8c26aad9ff07d37a7f2c81e6890bb8,Question,5,2,story,9,What was really in the box?,a pillow,0,1732
1543611824,db8c26aad9ff07d37a7f2c81e6890bb8,Question,5,3,story,9,Was Mary right about that?,no,1,3218
1543611824,db8c26aad9ff07d37a7f2c81e6890bb8,Question,7,0,politics,NULL,How worried are you about taxpayer money being wasted?,not at all worried,NULL,7476
1543611824,db8c26aad9ff07d37a7f2c81e6890bb8,Question,6,0,politics,NULL,How worried are you about bombs being sent to government officials?,a little worried,NULL,2445
# Columns below this comment are as follows:
# 1. Time results were received.
# 2. MD5 hash of participant's IP address.
# 3. Controller name.
# 4. Item number.
# 5. Element number.
# 6. Type.
# 7. Group.
# 8. Field name.
# 9. Field value.
1543611824,db8c26aad9ff07d37a7f2c81e6890bb8,Form,8,0,subj_info,NULL,year,1993
1543611824,db8c26aad9ff07d37a7f2c81e6890bb8,Form,8,0,subj_info,NULL,language,English
1543611824,db8c26aad9ff07d37a7f2c81e6890bb8,Form,8,0,subj_info,NULL,idturk,ADXRJFEHIDXRE
1543611824,db8c26aad9ff07d37a7f2c81e6890bb8,Form,8,0,subj_info,NULL,comment,
1543611824,db8c26aad9ff07d37a7f2c81e6890bb8,Form,8,0,subj_info,NULL,sex,male
1543611824,db8c26aad9ff07d37a7f2c81e6890bb8,Form,8,0,subj_info,NULL,politics,other
1543611824,db8c26aad9ff07d37a7f2c81e6890bb8,Form,8,0,subj_info,NULL,_REACTION_TIME_,19431
#
# Results on Friday November 30 2018 21:05:57 UTC.
# USER AGENT: Mozilla/5.0 (Windows NT 10.0; Win64; x64) AppleWebKit/537.36 (KHTML, like Gecko) Chrome/70.0.3538.110 Safari/537.36
# Design number was non-random = 37
#
# Columns below this comment are as follows:
# 1. Time results were received.
# 2. MD5 hash of participant's IP address.
# 3. Controller name.
# 4. Item number.
# 5. Element number.
# 6. Type.
# 7. Group.
# 8. Field name.
# 9. Field value.
1543611958,6017b03c268bd96e1166e0216bd19b05,Form,3,0,consent,NULL,,yes
1543611958,6017b03c268bd96e1166e0216bd19b05,Form,3,0,consent,NULL,_REACTION_TIME_,2902
1543611958,6017b03c268bd96e1166e0216bd19b05,Form,4,0,instructions,NULL,_REACTION_TIME_,1357
1543611958,6017b03c268bd96e1166e0216bd19b05,Form,5,0,story,9,_REACTION_TIME_,15598
# Columns below this comment are as follows:
# 1. Time results were received.
# 2. MD5 hash of participant's IP address.
# 3. Controller name.
# 4. Item number.
# 5. Element number.
# 6. Type.
# 7. Group.
# 8. Question (NULL if none).
# 9. Answer.
# 10. Whether or not answer was correct (NULL if N/A).
# 11. Time taken to answer.
1543611958,6017b03c268bd96e1166e0216bd19b05,Question,5,1,story,9,What's in the box%2C according to Mary?,a bomb,1,2589
1543611958,6017b03c268bd96e1166e0216bd19b05,Question,5,2,story,9,What was really in the box?,a pillow,0,1814
1543611958,6017b03c268bd96e1166e0216bd19b05,Question,5,3,story,9,Was Mary right about that?,no,1,2310
1543611958,6017b03c268bd96e1166e0216bd19b05,Question,6,0,politics,NULL,How worried are you about bombs being sent to government officials?,a little worried,NULL,2712
1543611958,6017b03c268bd96e1166e0216bd19b05,Question,7,0,politics,NULL,How worried are you about taxpayer money being wasted?,not at all worried,NULL,2182
# Columns below this comment are as follows:
# 1. Time results were received.
# 2. MD5 hash of participant's IP address.
# 3. Controller name.
# 4. Item number.
# 5. Element number.
# 6. Type.
# 7. Group.
# 8. Field name.
# 9. Field value.
1543611958,6017b03c268bd96e1166e0216bd19b05,Form,8,0,subj_info,NULL,year,1991
1543611958,6017b03c268bd96e1166e0216bd19b05,Form,8,0,subj_info,NULL,language,english
1543611958,6017b03c268bd96e1166e0216bd19b05,Form,8,0,subj_info,NULL,idturk,A2AMJNDTXLZ2YV
1543611958,6017b03c268bd96e1166e0216bd19b05,Form,8,0,subj_info,NULL,comment,
1543611958,6017b03c268bd96e1166e0216bd19b05,Form,8,0,subj_info,NULL,sex,male
1543611958,6017b03c268bd96e1166e0216bd19b05,Form,8,0,subj_info,NULL,politics,other
1543611958,6017b03c268bd96e1166e0216bd19b05,Form,8,0,subj_info,NULL,_REACTION_TIME_,13631
#
# Results on Friday November 30 2018 21:06:29 UTC.
# USER AGENT: Mozilla/5.0 (Windows NT 10.0; Win64; x64) AppleWebKit/537.36 (KHTML, like Gecko) Chrome/70.0.3538.110 Safari/537.36
# Design number was non-random = 36
#
# Columns below this comment are as follows:
# 1. Time results were received.
# 2. MD5 hash of participant's IP address.
# 3. Controller name.
# 4. Item number.
# 5. Element number.
# 6. Type.
# 7. Group.
# 8. Field name.
# 9. Field value.
1543611990,c9783e66a843b849121bd21534a5e85d,Form,3,0,consent,NULL,,yes
1543611990,c9783e66a843b849121bd21534a5e85d,Form,3,0,consent,NULL,_REACTION_TIME_,44883
1543611990,c9783e66a843b849121bd21534a5e85d,Form,4,0,instructions,NULL,_REACTION_TIME_,6716
1543611990,c9783e66a843b849121bd21534a5e85d,Form,5,0,story,9,_REACTION_TIME_,45330
# Columns below this comment are as follows:
# 1. Time results were received.
# 2. MD5 hash of participant's IP address.
# 3. Controller name.
# 4. Item number.
# 5. Element number.
# 6. Type.
# 7. Group.
# 8. Question (NULL if none).
# 9. Answer.
# 10. Whether or not answer was correct (NULL if N/A).
# 11. Time taken to answer.
